,Experiment,Subject,participant,Session,Procedure.Block.,Trial,Board,Word1,Word2,Clue1,ClueType,CorrectAnswer,Level,Player1.RESP,Player1.RT,Player2.RESP,Player2.RT,Player2.ACC,P2W1,P2W2,P2A1W1,P2A1W2,Clue2,Player1SecondClue.RESP,Player1SecondClue.RT,Player2SecondAnswer.ACC,Player2SecondAnswer.RESP,Player2SecondAnswer.RT,Clue3,Player1ThirdClue.RESP,Player1ThirdClue.RT,Player2ThirdAnswer.ACC,Player2ThirdAnswer.RESP,Player2ThirdAnswer.RT,bert-sum_w1w2_sim,bert-sum_c1w1_sim,bert-sum_c1w2_sim,bert-sum_c1avg_sim,bert-sum_c2w1_sim,bert-sum_c2w2_sim,bert-sum_c2_w1w2avg_sim,bert-sum_c2_c1avg_sim,glove_w1w2_sim,glove_c1w1_sim,glove_c1w2_sim,glove_c1avg_sim,glove_c2w1_sim,glove_c2w2_sim,glove_c2_w1w2avg_sim,glove_c2_c1avg_sim,swow_w1w2_sim,swow_c1w1_sim,swow_c1w2_sim,swow_c1avg_sim,swow_c2w1_sim,swow_c2w2_sim,swow_c2_w1w2avg_sim,swow_c2_c1avg_sim
0,E1,E1.1,1,1,S1,8,TrialList1,void,couch,comfortable,Attributive,couch{-}void9,Hard,comfy9,59842,couch{-}outfit9,32668,0,couch,outfit,0,1,disappear,dissapear9,59984,1,couch{-}void9,16733,na,,0,0,,0.0,0.5661940743724609,0.6400393118989695,0.6515690806024718,0.7297422715464483,0.6620963994163162,0.5634537984333883,0.6927665706151506,0.7845302047715662,0.050816349010013306,0.09733076481661884,0.30983360071680577,0.2808609460836352,0.28196896415656336,0.15096956948195472,0.29863990109464167,0.3069065308870832,0.01901799621821787,0.013185404743428553,0.8553130358185285,0.6017017954012122,0.3348822943829528,0.03971407584277009,0.2647023161834573,0.18769230459040676
1,E1,E1.1,1,1,S1,7,TrialList1,giggle,abnormal,funny,Attributive,abnormal{-}giggle9,Medium,funny9,21075,adore{-}giggle9,53394,0,adore,giggle,1,0,weird,weird9,8219,1,abnormal{-}giggle9,29701,na,,0,0,,0.0,0.6141666973874521,0.7448297677077785,0.7546610681258117,0.834608218398233,0.641071817811408,0.737014874458752,0.7690665739552305,0.8151429645674295,0.14924343674251184,0.29182465102174726,0.12179143009104876,0.2728201317839163,0.217640213301854,0.19200213024698076,0.2701990576742306,0.4433844226719007,0.02089786760681145,0.8688888177044202,0.31265240135326855,0.8132423523753265,0.20312204945528023,0.8897409060723505,0.7806731844410969,0.7184024123795846
2,E1,E1.1,1,1,S1,6,TrialList1,exam,algebra,math,Hierarchical,algebra{-}exam9,Easy,math9,6224,algebra{-}exam9,26977,1,algebra,exam,1,1,na,,0,0,,0,na,,0,0,,0.0,0.5769354408873905,0.6922493243647114,0.6797565272161125,0.7726766273679712,NA,NA,NA,NA,0.23237704169170825,0.5101634446606568,0.25387494378825304,0.48666305527934706,NA,NA,NA,NA,0.25409660586148175,0.36225232578804967,0.9590594608285195,0.8937250186998037,NA,NA,NA,NA
3,E1,E1.1,1,1,S1,42,TrialList10,tea,bean,time,Idiosyncratic,bean{-}tea9,Easy,time9,12297,dusk{-}hand9,58343,0,dusk,hand,0,0,swing,swinging9,89655,0,hand{-}pendulum9,8843,sunset,sunset9,34519,0,dusk{-}pendulum9,3735.0,0.8084679157212914,0.7354326869512358,0.7490640891205489,0.7807337792995711,0.7784245039201173,0.8219008170085096,0.8420773955221915,0.8534395915093275,0.4328598411884097,0.22083804839947008,0.157138325463837,0.22327896003705305,0.11610942813023972,0.10776060833747281,0.13224495606758668,0.24256351296598866,0.3260674845999034,0.1536708248017361,0.05677523898105641,0.12023557644823935,0.07787557182236227,0.04337937524688318,0.0711138981999091,0.1259017319709056
4,E1,E1.1,1,1,S1,44,TrialList10,tourist,comedy,fun,Attributive,comedy{-}tourist9,Medium,fun9,34427,comedy{-}tourist9,35365,1,comedy,tourist,1,1,na,,0,0,,0,na,,0,0,,0.0,0.646508680144063,0.6434360774950543,0.6173228469298155,0.6947237486609517,NA,NA,NA,NA,0.15384850085872914,0.26983971888653957,0.43193298829389615,0.4619628772943999,NA,NA,NA,NA,0.04427765460194233,0.18915309640925204,0.6218584314982578,0.5522784310708558,NA,NA,NA,NA
5,E1,E1.1,1,1,S1,43,TrialList10,pendulum,dusk,right,Idiosyncratic,dusk{-}pendulum9,Hard,right9,8756,9,5513,0,,,0,0,na,9,2156,0,9,3449,na,9,1206,0,9,1009.0,0.6975656423817038,0.6399732695916027,0.7024918551811503,0.7288623873717403,NA,NA,NA,NA,0.040764861847726874,0.10790558754881818,0.11490951312766173,0.15443769558813347,NA,NA,NA,NA,-0.0022915379047869777,0.10883969840844865,0.06390601101352955,0.1250979915689594,NA,NA,NA,NA
6,E1,E1.1,1,1,S1,10,TrialList2,beginning,brake,start,Coordinate,beginning{-}brake9,Hard,start9,129626,beginning{-}gas9,67550,0,beginning,gas,1,0,stop,stop9,78270,0,beginning{-}stopp9,7217,car,car9,16919,0,gas{-}brake9,10766.0,0.708221608592075,0.6985775212098153,0.5575014802937479,0.6819566286515905,0.7265689504449689,0.721873872478781,0.7836482682583171,0.8067872876034936,0.14813935056624616,0.7040919516318082,0.2136149643517551,0.6056081477971104,0.46475001792172055,0.3245231705272955,0.520852859178482,0.5957534426137234,0.11965930100489652,0.8917374501061038,0.2343611415879141,0.775361137843859,0.24531828882005435,0.595143242709292,0.5483861128859473,0.49571681312170535
7,E1,E1.1,1,1,S1,11,TrialList2,birds,aircraft,fly,Attributive,aircraft{-}birds9,Easy,fly9,2834,aircraft{-}birds9,10780,1,aircraft,birds,1,1,na,,0,0,,0,na,,0,0,,0.0,0.7742629947138543,0.6834022733271825,0.696271677068394,0.7325000221644256,NA,NA,NA,NA,0.11067645587780484,0.3012041511414595,0.7170757159116516,0.6832165524379038,NA,NA,NA,NA,0.3324465763084191,0.6443078038519401,0.700574977585174,0.8233601145407198,NA,NA,NA,NA
8,E1,E1.1,1,1,S1,12,TrialList2,school,stop,cancel,Coordinate,school{-}stop9,Medium,cancel9,39485,school{-}stop9,45532,1,school,stop,1,1,na,,0,0,,0,na,,0,0,,0.0,0.5892210126765406,0.6327628463983082,0.7484091400208635,0.7769606488258132,NA,NA,NA,NA,0.30478406256375634,0.2082491969890231,0.4456113278205547,0.4047629964515824,NA,NA,NA,NA,0.13428977182087065,0.14612911065440537,0.5352398030851586,0.4724752636610241,NA,NA,NA,NA
9,E1,E1.1,1,1,S1,14,TrialList3,circle,dance,art,Hierarchical,circle{-}dance9,Easy,art9,16486,dance{-}literature9,84052,0,dance,literature,0,1,shape,shapes9,11148,0,circle{-}stripes9,6104,movement,movement9,78752,1,circle{-}dance9,7960.0,0.5281395099082671,0.6541924460343772,0.6583700137871548,0.7504714188635877,0.8489548644373003,0.546435934956173,0.8055220519284276,0.8193374355783548,0.3398754240509272,0.32620498825814725,0.45197595062765183,0.4753717641960633,0.4856799635792307,0.26997041037435743,0.46160838558605066,0.4701248245011913,0.24137403540261748,0.11721228707924802,0.19163441585177798,0.19047325393434877,0.7718247970981486,0.1265062647946983,0.6106748941249538,0.6171911544058143
10,E1,E1.1,1,1,S1,15,TrialList3,famine,calorie,food,Hierarchical,calorie{-}famine9,Medium,food{SHIFT}9,76865,calorie{-}famine9,25851,1,calorie,famine,1,1,na,,0,0,,0,na,,0,0,,0.0,0.6629580954407065,0.7454419575730311,0.7254245837545157,0.8063233536783713,NA,NA,NA,NA,0.034736565670402286,0.3062069689374608,0.3661151494801028,0.4673556552775243,NA,NA,NA,NA,0.3891058748847751,0.41351817344303665,0.5979939442379274,0.5884507353346573,NA,NA,NA,NA
11,E1,E1.1,1,1,S1,16,TrialList3,hundred,economy,money,Hierarchical,economy{-}hundred9,Hard,money9,25253,economy{-}hundred9,17302,1,economy,hundred,1,1,na,,0,0,,0,na,,0,0,,0.0,0.48419122805544745,0.6505637875796527,0.6528283627230301,0.755746030549181,NA,NA,NA,NA,0.23288428386025095,0.3487168532031034,0.35969850489918587,0.4511404950306952,NA,NA,NA,NA,0.16097609250010425,0.3189549750516789,0.794766761164558,0.6614607006862679,NA,NA,NA,NA
12,E1,E1.1,1,1,S1,18,TrialList4,corpse,fight,death,Argument,corpse{-}fight9,Hard,death9,9494,corpse{-}garden9,51156,0,corpse,garden,1,0,injury,injury9,4830,1,corpse{-}fight9,20936,na,,0,0,,0.0,0.6792666706282837,0.7887406958428539,0.6655572506811988,0.7948726548759991,0.64906137740506,0.6063019813945622,0.6854471304132954,0.7094644796413603,0.20775701182287198,0.4062250766474258,0.38334063930716256,0.5080231472716064,0.21044021486340425,0.3439246620710127,0.35668999372663346,0.44075906492379147,0.06299379523669957,0.7800385734603185,0.20348891168838223,0.7392244247774041,0.15357893229774455,0.2841209198061676,0.2781750254979336,0.3005898355579605
13,E1,E1.1,1,1,S1,19,TrialList4,graph,copy,analyze,Attributive,copy{-}graph9,Medium,analyze9,17531,extension{-}graph9,58752,0,extension,graph,1,0,replicate,replicate9,12906,1,copy{-}graph9,5281,na,,0,0,,0.0,0.4988516338043415,0.5440044408777074,0.646438816232332,0.6857868618401783,0.5132996037510715,0.7169209031584031,0.7070926891751952,0.8304182834939264,0.12270590933688585,0.2741281595441778,0.27517296083339327,0.3665746957077153,0.1533760691342232,0.4021783294174017,0.3707478084833491,0.49155288835800226,0.13552496384812995,0.21251235066692287,0.09156533838717373,0.18464928441785333,0.08044456431544367,0.9119767097749224,0.7504407865352997,0.6067978349712458
14,E1,E1.1,1,1,S1,20,TrialList4,kitchen,egg,cook,Argument,egg{-}kitchen9,Easy,cook9,2686,egg{-}kitchen9,11262,1,egg,kitchen,1,1,na,,0,0,,0,na,,0,0,,0.0,0.7445174656024308,0.7804845042688769,0.77814277143255,0.8341979135728413,NA,NA,NA,NA,0.22233345320223408,0.5331150937326825,0.4550595525628286,0.6320098708368116,NA,NA,NA,NA,0.4430012273526396,0.809958925008679,0.6274359334434771,0.8510856651026565,NA,NA,NA,NA
15,E1,E1.1,1,1,S1,23,TrialList5,near,astronaut,space,Locative,astronaut{-}near9,Hard,space9,85948,astronaut{-}sky9,12923,0,astronaut,sky,0,1,close,close9,3390,1,astronaut{-}near9,15641,na,,0,0,,0.0,0.684976547481126,0.7267659095840446,0.7255141680793586,0.7911123790019564,0.8151169631741535,0.6368058952152207,0.7908526167922065,0.7935254224934296,0.11814379866492664,0.30030911903527335,0.46529570587207814,0.5119656569429226,0.6288912523579457,0.14803418835627036,0.5195358604146799,0.5600909301887843,0.0696041693545516,0.24395402220967788,0.8097486882719422,0.7678004969158394,0.8039644798023308,0.05334367619889824,0.5104953682308273,0.44712899363710523
16,E1,E1.1,1,1,S1,22,TrialList5,homeless,apartment,living,Locative,apartment{-}homeless9,Easy,living9,12491,apartment{-}homeless9,18378,1,apartment,homeless,1,1,na,,0,0,,0,na,,0,0,,0.0,0.7206288784844671,0.6975710367195406,0.790564284771675,0.8034117599255868,NA,NA,NA,NA,0.3379569615595205,0.3369176743538853,0.4585477641389275,0.4862786958792078,NA,NA,NA,NA,0.21921945464091797,0.16744468256847678,0.5413041954783278,0.45198445394612796,NA,NA,NA,NA
17,E1,E1.1,1,1,S1,24,TrialList5,onion,cigarette,pungent,Attributive,cigarette{-}onion9,Medium,pungent9,34203,cigarette{-}onion9,28518,1,cigarette,onion,1,1,na,,0,0,,0,na,,0,0,,0.0,0.703224360177519,0.5050985910504642,0.5120791602785068,0.5510213403793874,NA,NA,NA,NA,0.17143134249509273,0.2885934648885312,0.11992227958572399,0.2668918949879333,NA,NA,NA,NA,0.09543047099466861,0.5049431752967483,0.35032316973075106,0.5571290340522828,NA,NA,NA,NA
18,E1,E1.1,1,1,S1,27,TrialList6,pants,collar,clothes,Hierarchical,collar{-}pants9,Easy,clothes9,6391,necklace{-}pants9,20290,0,necklace,pants,1,0,dog,dog9,29237,1,collar{-}pants9,2607,na,,0,0,,0.0,0.8751625945892642,0.8058118971640434,0.7045015447290744,0.7782112344605081,0.7242032845384533,0.7106562519729276,0.7406807247630961,0.7635098884739082,0.45526256232442197,0.4667149582936174,0.342721081784083,0.47445699875817415,0.15918754593794016,0.3224126857106753,0.2822935915490957,0.33122597374546303,0.4863225308658845,0.8498533117630436,0.5345900110398364,0.8083310668575073,0.1312489140724461,0.3968308898034396,0.3016247373944472,0.2555754069617908
19,E1,E1.1,1,1,S1,26,TrialList6,definition,assist,helpful,Coordinate,assist{-}definition9,Hard,helpful9,4972,assist{-}welfare9,23447,0,assist,welfare,0,1,word,words9,3173,1,assist{-}definition9,8504,na,,0,0,,0.0,0.2630124124511132,0.699942165680766,0.2789031055490232,0.6302068122164963,0.7310592958961537,0.2520798735565468,0.6349559367302102,0.7440458137553014,0.16015390872195268,0.27363846121450086,0.35456247170706834,0.4124067591914805,0.438493438034224,0.16503754284622385,0.3962112199362806,0.3970002948987945,0.04719898003212997,0.11672463447925896,0.6962325911610308,0.5577951929117505,0.7434280476016405,0.08321872138356534,0.5756481435634431,0.47254068097416013
20,E1,E1.1,1,1,S1,28,TrialList6,war,quiet,peace,Coordinate,quiet{-}war9,Medium,peace9,10673,quiet{-}war9,22042,1,quiet,war,1,1,na,,0,0,,0,na,,0,0,,0.0,0.6215020998849403,0.7425513808600187,0.7905078752232552,0.8516486597305565,NA,NA,NA,NA,0.25201139624598945,0.5433544361801456,0.36704376756896273,0.5753236837363059,NA,NA,NA,NA,0.09187378393041379,0.3012084211642161,0.6028103783432457,0.6263118087244012,NA,NA,NA,NA
21,E1,E1.1,1,1,S1,30,TrialList7,flat,alike,similar,Coordinate,alike{-}flat9,Hard,similar9,35382,alike{-}competition9,43130,0,alike,competition,0,1,boring,boring9,6829,1,alike{-}flat9,37622,na,,0,0,,0.0,0.6575328408388152,0.7142902225304424,0.7147250992452222,0.7848122642783553,0.7251782047640319,0.6510104792496278,0.7567091896528658,0.7719961720518723,0.16525538450600563,0.41513762296316226,0.2707460450991068,0.44928808528807096,0.23191302022691307,0.20532740697650842,0.2864143359626985,0.3023148041094331,0.10847299813008726,0.12174673633760147,0.9666006111529413,0.8944931633589319,0.45968064022426536,0.16658555447031698,0.32871449925188156,0.26773142593478894
22,E1,E1.1,1,1,S1,32,TrialList7,perjury,adultery,wrong,Attributive,adultery{-}perjury9,Easy,wrong9,14531,adultery{-}perjury9,10849,1,adultery,perjury,1,1,na,,0,0,,0,na,,0,0,,0.0,0.5832977551789396,0.5474466918688118,0.6360400758012755,0.6676835966717056,NA,NA,NA,NA,0.4050039450875955,0.11870273298641987,0.22536631266840546,0.2052540945561211,NA,NA,NA,NA,0.49396754037378066,0.5597225805640249,0.4613573646474749,0.5895580118508779,NA,NA,NA,NA
23,E1,E1.1,1,1,S1,31,TrialList7,heavy,feather,weight,Hierarchical,feather{-}heavy9,Medium,weight9,23943,feather{-}heavy9,22364,1,feather,heavy,1,1,na,,0,0,,0,na,,0,0,,0.0,0.7400216143269848,0.7891020139651678,0.8624752236192257,0.8858131084362404,NA,NA,NA,NA,0.18189630026155323,0.4441466443679407,0.2350956030802014,0.4417941936479739,NA,NA,NA,NA,0.09667100939457307,0.8097220074443683,0.08328788635115658,0.5496129699760618,NA,NA,NA,NA
24,E1,E1.1,1,1,S1,35,TrialList8,breeze,bubble,gentle,Attributive,breeze{-}bubble9,Easy,gentle9,27345,bubble{-}care9,37070,0,bubble,care,0,1,blow,blow9,25034,1,bubble{-}breeze9,19253,na,alphabetical9,11882,0,breeze{-}care9,7074.0,0.770239211740487,0.7583364461513081,0.7487548462497757,0.800647097783423,0.8030124340437989,0.8876513229997302,0.9003168297169969,0.8962125984372773,0.21730974411248194,0.4241432193754413,0.1452654561211133,0.36492914037474267,0.43119727979842915,0.3696602869088528,0.5132627399440083,0.4920322514331492,0.23135433877764755,0.270641639465798,0.09171235299208058,0.23454882992758275,0.4915285792692241,0.4293995577580658,0.5879370784156249,0.49071098452773754
25,E1,E1.1,1,1,S1,34,TrialList8,bad,actress,Riverdale,Idiosyncratic,actress{-}bad9,Medium,riverdale9,128554,actress{-}party9,108192,0,actress,party,0,1,dislike,disliked9,28298,0,actress{-}trash9,17801,poor,poor9,24592,0,bad{-}trash9,3692.0,0.43988575827573817,NA,NA,NA,0.6575798071700435,0.47006317012041277,0.6687530547560259,NA,0.24005194213866987,NA,NA,NA,0.3734084306821921,0.18920839454636074,0.3572545621599972,NA,0.05962907737309786,NA,NA,NA,0.5377450951218535,0.010444016501349518,0.24284235164754409,NA
26,E1,E1.1,1,1,S1,36,TrialList8,communicate,cooking,kitchen,Locative,communicate{-}cooking9,Hard,kitchen9,20930,cooking{-}trash9,48758,0,cooking,trash,0,1,talking,talking9,6216,1,communicate{-}cooking9,11602,na,,0,0,,0.0,0.7042828665419428,0.6820038944909325,0.8296970885501052,0.8155893333148484,0.8139789492640974,0.8206742151491431,0.8851437353969047,0.8696953368637022,0.16776406192920068,0.1475097826311007,0.5814113575562052,0.4769666351233176,0.06709647506992833,0.15885493819112506,0.14785040375831748,0.14928378649186824,0.017125657072758482,0.011160191901591343,0.7983980426276907,0.5272191356882575,0.801947105579417,0.024229762441336566,0.6163980140047163,0.4340769845931899
27,E1,E1.1,1,1,S1,38,TrialList9,bat,bounce,fly,Attributive,bat{-}bounce9,Easy,fly9,26316,bat{-}Dracula9,58194,0,bat,Dracula,1,0,baseball,baseball9,29178,1,bat{-}bounce9,34925,na,,0,0,,0.0,0.7712406228046738,0.7645008092207272,0.7677246163784324,0.81406891623285,0.647175884947327,0.5152359201441954,0.61808415826041,0.6085122417162739,0.3306467058027297,0.3554425139151123,0.3353440979786322,0.42344551063356595,0.4037410366113019,0.20857337160453615,0.37534281157716065,0.36220756978753266,0.42837009898396583,0.4340801823286702,0.15759931315462228,0.33787308047487086,0.6709607616649595,0.48715339561422577,0.6766176551038314,0.5865926427815545
28,E1,E1.1,1,1,S1,40,TrialList9,toes,Dracula,scary,Attributive,Dracula{-}toes9,Hard,scary9,21662,bacteria{-}Dracula9,31830,0,bacteria,Dracula,0,1,gross,gross9,18468,0,bacteria{-}bat9,26669,feet,feet9,23129,0,bacteria{-}toes9,6080.0,0.49450218052063977,0.557056239774341,0.776288573226194,0.7693588766862892,0.5359656691148347,0.698011508516365,0.7123643247919722,0.7583247378577435,-0.08339683212448401,-0.03744368805774401,0.19172592753891005,0.1139489317091773,-0.07499010335579981,0.12372927444168091,0.03599750990490447,0.1034751061896706,0.06788867481809979,0.04194669447042565,0.572352535397394,0.42898191936678276,0.2183588341324908,0.13169237086771735,0.23803650723245517,0.2703087532750834
29,E1,E1.1,1,1,S1,39,TrialList9,lunch,almond,food,Hierarchical,almond{-}lunch9,Medium,food9,6755,almond{-}lunch9,12775,1,almond,lunch,1,1,na,,0,0,,0,na,,0,0,,0.0,0.5485966371479462,0.7674838170013165,0.6606283921786305,0.8070949145445829,NA,NA,NA,NA,0.1137609627794085,0.4245527162506235,0.18792561492043502,0.4103739127237287,NA,NA,NA,NA,0.21260010022496523,0.7934501401194639,0.36294411133221716,0.6985696690151261,NA,NA,NA,NA
30,E1,E1.2,2,1,S1,8,TrialList1,void,couch,move,Attributive,couch{-}void9,Hard,moving9,18528,couch{-}lead9,33237,0,couch,lead,0,1,spacious,spacious9,82961,0,depth{-}void9,26704,movingout,moving{SPACE}out9,32947,0,burglar{-}couch9,23176.0,0.5661940743724609,0.6333449507323049,0.5477848712731596,0.6676270240944262,0.6649902371468333,0.6246427393311941,0.7287900893366367,0.7719891714532017,0.050816349010013306,0.18803735053725168,0.15404137074069624,0.23596503340304809,0.09752758138504147,0.20898584557443356,0.2114321839766109,0.281249488900136,0.01901799621821787,0.07826635934218007,0.08405696681446606,0.11365135210432054,0.3052632059252103,0.23212152188265234,0.376978339145141,0.34806587111549026
31,E1,E1.2,2,1,S1,7,TrialList1,giggle,abnormal,goofy,Attributive,abnormal{-}giggle9,Medium,goofy9,7680,abnormal{-}giggle9,29248,1,abnormal,giggle,1,1,na,,0,0,,0,na,,0,0,,0.0,0.6141666973874521,0.6741454721797929,0.7385235773070623,0.7875718795902872,NA,NA,NA,NA,0.14924343674251184,0.30377516728568765,0.04087103999393071,0.22732778138071763,NA,NA,NA,NA,0.02089786760681145,0.6194030928810753,0.40996220443409626,0.7150226564487202,NA,NA,NA,NA
32,E1,E1.2,2,1,S1,6,TrialList1,exam,algebra,math,Hierarchical,algebra{-}exam9,Easy,math9,37366,algebra{-}exam9,9204,1,algebra,exam,1,1,na,,0,0,,0,na,,0,0,,0.0,0.5769354408873905,0.6922493243647114,0.6797565272161125,0.7726766273679712,NA,NA,NA,NA,0.23237704169170825,0.5101634446606568,0.25387494378825304,0.48666305527934706,NA,NA,NA,NA,0.25409660586148175,0.36225232578804967,0.9590594608285195,0.8937250186998037,NA,NA,NA,NA
33,E1,E1.2,2,1,S1,44,TrialList10,tourist,comedy,Las Vegas,Locative,comedy{-}tourist9,Medium,las{SPACE}vegas9,62044,hand{-}tourist9,11632,0,hand,tourist,1,0,show,show9,6894,1,comedy{-}tourist9,10892,na,,0,0,,0.0,0.646508680144063,0.4702683048688072,0.45594024579411363,0.5103811207004292,0.6621265523289891,0.6043171847416797,0.6978125635176394,0.6676530165203429,0.15384850085872914,0.07329255593615658,0.0840899590791323,0.10360174901216257,0.2410088541086517,0.49653951467620905,0.4855132748341746,0.4388353481585514,0.04427765460194233,0.0697715632289323,0.0705150886501742,0.09701952817249226,0.12213440843531598,0.5059705008241672,0.4267454775497109,0.413431403747643
34,E1,E1.2,2,1,S1,43,TrialList10,tea,bean,Starbucks,Locative,bean{-}tea9,Easy,starbucks9,7471,bean{-}tea9,10944,1,bean,tea,1,1,na,,0,0,,0,na,,0,0,,0.0,0.8084679157212914,NA,NA,NA,NA,NA,NA,NA,0.4328598411884097,NA,NA,NA,NA,NA,NA,NA,0.3260674845999034,NA,NA,NA,NA,NA,NA,NA
35,E1,E1.2,2,1,S1,42,TrialList10,pendulum,dusk,time,Attributive,dusk{-}pendulum9,Hard,time9,10283,dusk{-}pendulum9,26898,1,dusk,pendulum,1,1,na,,0,0,,0,na,,0,0,,0.0,0.6975656423817038,0.7289191235309136,0.7861761454665865,0.8225261921748739,NA,NA,NA,NA,0.040764861847726874,0.2107216939185682,0.2021173111642406,0.286147142878973,NA,NA,NA,NA,-0.0022915379047869777,0.21077135787667656,0.2474092263601645,0.3193345966191501,NA,NA,NA,NA
36,E1,E1.2,2,1,S1,10,TrialList2,beginning,brake,restart,Coordinate,beginning{-}brake9,Hard,restart9,105313,beginning{-}stop9,35811,0,beginning,stop,1,0,bicycle,bicycle9,54881,0,brake{-}stop9,10098,restart,restart9,27413,1,beginning{-}brake9,9192.0,0.708221608592075,0.6850090725678558,0.6969558596040933,0.7473961964328345,0.6665663361900503,0.7778669010068793,0.7794619596602737,0.7906575726185912,0.14813935056624616,0.3858221690516821,0.22258956580797995,0.4014997554068682,0.1995762308846155,0.35895920536541515,0.3685856571089199,0.3378249630670025,0.11965930100489652,0.4824595042264106,0.09658438111872925,0.400418702244111,0.04626054596625928,0.6642029517380372,0.45194664225061343,0.32038584784424373
37,E1,E1.2,2,1,S1,11,TrialList2,birds,aircraft,fly,Attributive,aircraft{-}birds9,Easy,flying9,10936,aircraft{-}birds9,14087,1,aircraft,birds,1,1,na,,0,0,,0,na,,0,0,,0.0,0.7742629947138543,0.6834022733271825,0.696271677068394,0.7325000221644256,NA,NA,NA,NA,0.11067645587780484,0.3012041511414595,0.7170757159116516,0.6832165524379038,NA,NA,NA,NA,0.3324465763084191,0.6443078038519401,0.700574977585174,0.8233601145407198,NA,NA,NA,NA
38,E1,E1.2,2,1,S1,12,TrialList2,school,stop,graduate,Attributive,school{-}stop9,Medium,graduate9,11595,school{-}stop9,19967,1,school,stop,1,1,na,,0,0,,0,na,,0,0,,0.0,0.5892210126765406,0.6586308615751155,0.5768439231112483,0.6911832804135908,NA,NA,NA,NA,0.30478406256375634,0.5685494088508528,0.17990692985572354,0.4633211726570762,NA,NA,NA,NA,0.13428977182087065,0.7391124288895509,0.09666364468293054,0.5183522208382307,NA,NA,NA,NA
39,E1,E1.2,2,1,S1,16,TrialList3,hundred,economy,percentage,Attributive,economy{-}hundred9,Hard,percentages9,27848,college{-}hundred9,30938,0,college,hundred,1,0,money,money9,24587,1,economy{-}hundred9,9704,na,,0,0,,0.0,0.48419122805544745,0.6274890261685914,0.5987572796632701,0.7122940078048668,0.6505637875796527,0.6528283627230301,0.755746030549181,0.7925410587506376,0.23288428386025095,0.2289318282240842,0.3181472091000894,0.3483966071443422,0.3487168532031034,0.35969850489918587,0.4511404950306952,0.4818673760042118,0.16097609250010425,0.5419911407034985,0.35417120575800487,0.6038584327783965,0.3189549750516789,0.794766761164558,0.6614607006862679,0.6278227951487106
40,E1,E1.2,2,1,S1,15,TrialList3,famine,calorie,food,Hierarchical,calorie{-}famine9,Medium,food9,14985,calorie{-}famine9,15038,1,calorie,famine,1,1,na,,0,0,,0,na,,0,0,,0.0,0.6629580954407065,0.7454419575730311,0.7254245837545157,0.8063233536783713,NA,NA,NA,NA,0.034736565670402286,0.3062069689374608,0.3661151494801028,0.4673556552775243,NA,NA,NA,NA,0.3891058748847751,0.41351817344303665,0.5979939442379274,0.5884507353346573,NA,NA,NA,NA
41,E1,E1.2,2,1,S1,14,TrialList3,circle,dance,twirl,Attributive,circle{-}dance9,Easy,twirling9,53160,circle{-}dance9,3415,1,circle,dance,1,1,na,,0,0,,0,na,,0,0,,0.0,0.5281395099082671,0.5509567987997351,0.4489633829756957,0.574350691145662,NA,NA,NA,NA,0.3398754240509272,0.17314398329487712,0.27876420789263123,0.2760596974271263,NA,NA,NA,NA,0.24137403540261748,0.5086062449834389,0.5756091736010629,0.6814321263780041,NA,NA,NA,NA
42,E1,E1.2,2,1,S1,20,TrialList4,kitchen,egg,bake,Argument,egg{-}kitchen9,Easy,baking9,13584,berry{-}egg9,5804,0,berry,egg,0,1,fridge,fridge9,28298,1,egg{-}kitchen9,3083,na,,0,0,,0.0,0.7445174656024308,0.6168508952880374,0.5484812046542376,0.6218414299809893,0.856622541274176,0.7041205988414111,0.8311386214192057,0.8176943189883488,0.22233345320223408,0.37546117347805064,0.3190213580557353,0.44417230975113375,0.3399386579740924,0.14456063343600223,0.3098726916949197,0.3291981546969457,0.4430012273526396,0.6655185105835205,0.5957542748749214,0.7441368162083349,0.4828893851689531,0.32713091266392014,0.4811758325538398,0.4877146017601215
43,E1,E1.2,2,1,S1,19,TrialList4,graph,copy,paper,Argument,copy{-}graph9,Medium,paper9,18306,copy{-}graph9,13130,1,copy,graph,1,1,na,,0,0,,0,na,,0,0,,0.0,0.4988516338043415,0.6114392554053216,0.6854496312117204,0.7477262478712167,NA,NA,NA,NA,0.12270590933688585,0.23309269982513903,0.44065155473394646,0.44962150555608615,NA,NA,NA,NA,0.13552496384812995,0.2896238025229867,0.43593234445627393,0.4930067581924724,NA,NA,NA,NA
44,E1,E1.2,2,1,S1,18,TrialList4,corpse,fight,war,Temporal,corpse{-}fight9,Hard,war9,7012,corpse{-}fight9,25574,1,corpse,fight,1,1,na,,0,0,,0,na,,0,0,,0.0,0.6792666706282837,0.6206661083312813,0.661553401548965,0.6991875401970631,NA,NA,NA,NA,0.20775701182287198,0.20076332863994883,0.5925134671895274,0.5104109365708149,NA,NA,NA,NA,0.06299379523669957,0.19856128101202952,0.6934409490996427,0.5368702861618443,NA,NA,NA,NA
45,E1,E1.2,2,1,S1,23,TrialList5,near,astronaut,moon,Locative,astronaut{-}near9,Hard,moon9,85470,astronaut{-}sky9,8282,0,astronaut,sky,0,1,orbit,orbit9,36748,1,astronaut{-}near9,16987,na,,0,0,,0.0,0.684976547481126,0.6493236378304023,0.651749966518776,0.7087457486084582,0.6815467944459674,0.7897030729817394,0.8014862237798472,0.8146277934133792,0.11814379866492664,0.26401901610138667,0.44214495280553767,0.47221711224498786,0.2842838629314606,0.39635185762444913,0.4551461843325747,0.5927142625733018,0.0696041693545516,0.058636181475050675,0.7551707913853559,0.6174729256577824,0.06843899069882609,0.8066782674321475,0.6629761581356078,0.779221754833491
46,E1,E1.2,2,1,S1,22,TrialList5,homeless,apartment,gentrification,Hierarchical,apartment{-}homeless9,Easy,gentrification9,28089,apartment{-}homeless9,21730,1,apartment,homeless,1,1,na,,0,0,,0,na,,0,0,,0.0,0.7206288784844671,NA,NA,NA,NA,NA,NA,NA,0.3379569615595205,NA,NA,NA,NA,NA,NA,NA,0.21921945464091797,NA,NA,NA,NA,NA,NA,NA
47,E1,E1.2,2,1,S1,24,TrialList5,onion,cigarette,smell,Attributive,cigarette{-}onion9,Medium,smelly9,7134,cigarette{-}onion9,10172,1,cigarette,onion,1,1,na,,0,0,,0,na,,0,0,,0.0,0.703224360177519,0.7021326595351702,0.6724951249493699,0.7450939977103314,NA,NA,NA,NA,0.17143134249509273,0.21790628007088864,0.2652700759466271,0.31566923339676767,NA,NA,NA,NA,0.09543047099466861,0.3967017659390053,0.4607907515680465,0.5804736315475695,NA,NA,NA,NA
48,E1,E1.2,2,1,S1,28,TrialList6,war,quiet,apocalypse,Temporal,quiet{-}war9,Medium,apocalypse9,36749,conquer{-}war9,21668,0,conquer,war,1,0,underground,underground9,27512,0,experiment{-}war9,9031,silence,silencer9,17365,1,quiet{-}war9,32417.0,0.6215020998849403,0.6420431496304323,0.732047156311802,0.763692807938496,0.6018914919779446,0.7645362887896036,0.7599862702831279,0.8176714458563449,0.25201139624598945,0.2206305597833742,0.007486317761851602,0.14415784305391566,0.27840100149010927,0.2033563798407505,0.30444527488574114,0.2757510025003267,0.09187378393041379,0.47302014246541724,0.07265381897490442,0.3468518882920302,0.11802995085135082,0.11033207581456272,0.15371805384728265,0.14169800742043936
49,E1,E1.2,2,1,S1,26,TrialList6,definition,assist,dictionary,Attributive,assist{-}definition9,Hard,dictionary9,20999,assist{-}definition9,23114,1,assist,definition,1,1,na,,0,0,,0,na,,0,0,,0.0,0.2630124124511132,0.6497493898702605,0.3472755814283116,0.6374398567992523,NA,NA,NA,NA,0.16015390872195268,0.3957531077506511,0.12371923623378989,0.3410276818660446,NA,NA,NA,NA,0.04719898003212997,0.8467850845166273,0.037641665362488586,0.6165800873630919,NA,NA,NA,NA
50,E1,E1.2,2,1,S1,27,TrialList6,pants,collar,suit,Coordinate,collar{-}pants9,Easy,suit9,9793,collar{-}pants9,14365,1,collar,pants,1,1,na,,0,0,,0,na,,0,0,,0.0,0.8751625945892642,0.8412961491579274,0.8515093155700044,0.8742605791964778,NA,NA,NA,NA,0.45526256232442197,0.38633822088570624,0.3539770857238561,0.433941365712482,NA,NA,NA,NA,0.4863225308658845,0.6070980337167644,0.542963575172281,0.6680473356055381,NA,NA,NA,NA
51,E1,E1.2,2,1,S1,31,TrialList7,heavy,feather,weight,Hierarchical,feather{-}heavy9,Medium,weight9,5882,float{-}heavy9,32442,0,float,heavy,1,0,light,light9,72933,1,feather{-}heavy9,19629,na,,0,0,,0.0,0.7400216143269848,0.7891020139651678,0.8624752236192257,0.8858131084362404,0.7579895098283627,0.760248292698064,0.8138614784451873,0.8161854172714937,0.18189630026155323,0.4441466443679407,0.2350956030802014,0.4417941936479739,0.5104870811814796,0.23151225157302002,0.4826127906271068,0.502817421473099,0.09667100939457307,0.8097220074443683,0.08328788635115658,0.5496129699760618,0.17480538458657613,0.17553259980973823,0.23556331224541005,0.23074422759081958
52,E1,E1.2,2,1,S1,30,TrialList7,flat,alike,uniform,Attributive,alike{-}flat9,Hard,uniform9,62577,alike{-}man9,31590,0,alike,man,0,1,plate,plates9,44317,0,alike{-}service9,25636,monotone,monotone9,10642,0,flat{-}service9,13651.0,0.6575328408388152,0.7029520999985176,0.6605951085855443,0.7493786994046383,0.7191821136175088,0.6663248169155503,0.7615670129819712,0.8207076536212053,0.16525538450600563,0.29869058627222467,0.21655149967046794,0.3375093203545503,0.4440427536875129,0.07596256923662559,0.3406294723961787,0.4017538289396394,0.10847299813008726,0.13389702007070436,0.2568669690799441,0.2781087066392023,0.3129662558527524,0.026464036458786477,0.14769133189827566,0.160484124571742
53,E1,E1.2,2,1,S1,32,TrialList7,perjury,adultery,court,Locative,adultery{-}perjury9,Easy,court9,30947,adultery{-}perjury9,15273,1,adultery,perjury,1,1,na,,0,0,,0,na,,0,0,,0.0,0.5832977551789396,0.5834075939476399,0.7287414271035602,0.7418199472214738,NA,NA,NA,NA,0.4050039450875955,0.23981924723869852,0.27652435724910784,0.3080243371207023,NA,NA,NA,NA,0.49396754037378066,0.599483564813112,0.1440362696602726,0.4249537190467987,NA,NA,NA,NA
54,E1,E1.2,2,1,S1,36,TrialList8,communicate,cooking,recipe,Attributive,communicate{-}cooking9,Hard,recipe9,10772,cooking{-}sauce9,15872,0,cooking,sauce,0,1,food network,food{SPACE}network9,23955,0,cooking{-}vegetable9,24288,recipe,reci{LEFTBRACKET}pe9,62474,0,pepper{-}vegetable9,26828.0,0.7042828665419428,0.7587262427694165,0.7423707725299826,0.8132982993085949,NA,NA,NA,NA,0.16776406192920068,0.11112377343503654,0.5959380861332132,0.4626631030259333,NA,NA,NA,NA,0.017125657072758482,0.044643423238244107,0.8389896207994303,0.5786773140296575,NA,NA,NA,NA
55,E1,E1.2,2,1,S1,34,TrialList8,bad,actress,boo,Attributive,actress{-}bad9,Medium,booed9,72190,actress{-}vegetable9,18531,0,actress,vegetable,0,1,razzy,razzy9,86067,0,trash{-}vegetable9,16935,rating,rating9,40167,0,bad{-}actress9,18100.0,0.43988575827573817,0.6356934327112329,0.4304307510878518,0.6329356931462677,NA,NA,NA,NA,0.24005194213866987,0.18734755012167104,0.13933724488278287,0.20744070845143892,NA,NA,NA,NA,0.05962907737309786,0.2583121962672419,0.040115793662528376,0.1473666120532905,NA,NA,NA,NA
56,E1,E1.2,2,1,S1,35,TrialList8,breeze,bubble,ocean,Locative,breeze{-}bubble9,Easy,ocean9,36487,breeze{-}bubble9,13959,1,breeze,bubble,1,1,na,,0,0,,0,na,,0,0,,0.0,0.770239211740487,0.5175497664433656,0.4432973488398988,0.508919853981228,NA,NA,NA,NA,0.21730974411248194,0.3354237195115808,0.25300031548462276,0.37711591427324165,NA,NA,NA,NA,0.23135433877764755,0.577271208752757,0.2602177262353722,0.5400913305328054,NA,NA,NA,NA
57,E1,E1.2,2,1,S1,39,TrialList9,lunch,almond,snack,Hierarchical,almond{-}lunch9,Medium,snack9,23796,almond{-}drink9,21967,0,almond,drink,0,1,food,food9,8392,1,almond{-}lunch9,10348,na,,0,0,,0.0,0.5485966371479462,0.6529595427673854,0.7580994262859364,0.8051444223754567,0.7674838170013165,0.6606283921786305,0.8070949145445829,0.8481654593769433,0.1137609627794085,0.458995789092028,0.28037444192165784,0.49539426374336637,0.4245527162506235,0.18792561492043502,0.4103739127237287,0.5281811079068363,0.21260010022496523,0.7200670788502005,0.6424084416567531,0.8621186748082443,0.7934501401194639,0.36294411133221716,0.6985696690151261,0.7544715735531191
58,E1,E1.2,2,1,S1,38,TrialList9,bat,bounce,ball,Coordinate,bat{-}bounce9,Easy,ball9,20669,bat{-}bounce9,12950,1,bat,bounce,1,1,na,,0,0,,0,na,,0,0,,0.0,0.7712406228046738,0.7543070660947083,0.6757697625614555,0.7600988867903951,NA,NA,NA,NA,0.3306467058027297,0.4993170861825733,0.602299342991556,0.675280212342926,NA,NA,NA,NA,0.42837009898396583,0.6228906743951373,0.6651761629133046,0.7630956102762579,NA,NA,NA,NA
59,E1,E1.2,2,1,S1,40,TrialList9,toes,Dracula,ugly,Attributive,Dracula{-}toes9,Hard,ugly9,46792,Dracula{-}toes9,32124,1,Dracula,toes,1,1,na,,0,0,,0,na,,0,0,,0.0,0.49450218052063977,0.5552650022999703,0.7076494195574967,0.7291822451966338,NA,NA,NA,NA,-0.08339683212448401,-0.13696923860681753,0.05032687208208353,-0.06399184523041512,NA,NA,NA,NA,0.06788867481809979,0.14857214639870575,0.25885224796652784,0.2805327851512516,NA,NA,NA,NA
60,E1,E1.3,3,1,S1,7,TrialList1,giggle,abnormal,laugh,Coordinate,abnormal{-}giggle9,Medium,laugh9,31280,giggle{-}rumor9,27368,0,giggle,rumor,1,0,weird,wierd9,11112,1,abnormal{-}giggle9,15983,na,,0,0,,0.0,0.6141666973874521,0.881681287050433,0.7018752784133574,0.8769536139849143,0.641071817811408,0.737014874458752,0.7690665739552305,0.7639634121778499,0.14924343674251184,0.5301232598650764,0.10218180388861142,0.41706684529014226,0.217640213301854,0.19200213024698076,0.2701990576742306,0.36185338847860915,0.02089786760681145,0.9165326138508355,0.052690252148033356,0.6574464111487437,0.20312204945528023,0.8897409060723505,0.7806731844410969,0.631029779506321
61,E1,E1.3,3,1,S1,6,TrialList1,exam,algebra,math,Hierarchical,algebra{-}exam9,Easy,math9,11869,algebra{-}exam9,19245,1,algebra,exam,1,1,na,,0,0,,0,na,,0,0,,0.0,0.5769354408873905,0.6922493243647114,0.6797565272161125,0.7726766273679712,NA,NA,NA,NA,0.23237704169170825,0.5101634446606568,0.25387494378825304,0.48666305527934706,NA,NA,NA,NA,0.25409660586148175,0.36225232578804967,0.9590594608285195,0.8937250186998037,NA,NA,NA,NA
62,E1,E1.3,3,1,S1,8,TrialList1,void,couch,sit,Attributive,couch{-}void9,Hard,sit9,56567,couch{-}void9,49948,1,couch,void,1,1,na,,0,0,,0,na,,0,0,,0.0,0.5661940743724609,0.5442116502728572,0.5932515438583532,0.6425293002581424,NA,NA,NA,NA,0.050816349010013306,0.2387881383390288,0.4798108221080396,0.4956877390491339,NA,NA,NA,NA,0.01901799621821787,0.06679860698273754,0.7795174930460528,0.5871825262638413,NA,NA,NA,NA
63,E1,E1.3,3,1,S1,42,TrialList10,pendulum,dusk,swing,Attributive,dusk{-}pendulum9,Hard,swing9,51757,bat{-}rhythm9,36283,0,bat,rhythm,0,0,weight,weight9,80316,0,bat{-}nautron9,100515,evening,evening9,10535,1,dusk{-}pendulum9,63724.0,0.6975656423817038,0.7867244832375565,0.7944574763702589,0.858161352553795,0.7411609003439626,0.7913815813363644,0.8319621949559378,0.8482960937050611,0.040764861847726874,0.43004112381991133,0.08242127670736821,0.3551981419955952,0.19204142970888882,-0.055347055660970756,0.09474565400853752,0.21634379850886631,-0.0022915379047869777,0.6830771822427718,0.04523348214282774,0.5633032213994965,0.26894796810532506,0.045077925794547724,0.23878680802084684,0.24202747944406333
64,E1,E1.3,3,1,S1,43,TrialList10,tea,bean,coffee,Coordinate,bean{-}tea9,Easy,coffee9,31699,bean{-}tea9,8579,1,bean,tea,1,1,na,,0,0,,0,na,,0,0,,0.0,0.8084679157212914,0.8757904911256337,0.7573005688550953,0.8569051152703231,NA,NA,NA,NA,0.4328598411884097,0.7377339609218128,0.5866473672862982,0.7823411889648689,NA,NA,NA,NA,0.3260674845999034,0.8126744714101315,0.36400138958133077,0.680293086013009,NA,NA,NA,NA
65,E1,E1.3,3,1,S1,44,TrialList10,tourist,comedy,laugh,Argument,comedy{-}tourist9,Medium,laugh9,52625,comedy{-}tourist9,36924,1,comedy,tourist,1,1,na,,0,0,,0,na,,0,0,,0.0,0.646508680144063,0.7019121779964307,0.6955659054168718,0.7700922376705516,NA,NA,NA,NA,0.15384850085872914,0.11416440140574347,0.41908112281755217,0.351024813739343,NA,NA,NA,NA,0.04427765460194233,0.047017981729868374,0.8332308489685213,0.5930713653201385,NA,NA,NA,NA
66,E1,E1.3,3,1,S1,12,TrialList2,school,stop,children,Locative,school{-}stop9,Medium,children9,26009,bandit{-}school9,66747,0,bandit,school,1,0,pause,pause9,11190,1,school{-}stop9,12713,na,,0,0,,0.0,0.5892210126765406,0.6693036363950677,0.4732747280188083,0.6367316003495651,0.6762305861780064,0.7380588387279567,0.7944242231083343,0.7808833466141991,0.30478406256375634,0.06984756865547603,-0.12663767691808658,-0.03515510558851487,0.05905064562491602,0.4617751317376153,0.32240974332786854,0.275722054786818,0.13428977182087065,0.3800195167444147,0.10013944593909296,0.3026720962875975,0.12573561434003167,0.70510325330728,0.5818533971490287,0.47617662448175047
67,E1,E1.3,3,1,S1,10,TrialList2,beginning,brake,stop,Coordinate,beginning{-}brake9,Hard,stop9,47842,brake{-}stop9,34716,0,brake,stop,0,1,start,start9,35942,1,beginning{-}brake9,36931,na,,0,0,,0.0,0.708221608592075,0.7265689504449689,0.721873872478781,0.7836482682583171,0.6985775212098153,0.5575014802937479,0.6819566286515905,0.7162418556845392,0.14813935056624616,0.46475001792172055,0.3245231705272955,0.520852859178482,0.7040919516318082,0.2136149643517551,0.6056081477971104,0.6694179377662303,0.11965930100489652,0.24531828882005435,0.595143242709292,0.5483861128859473,0.8917374501061038,0.2343611415879141,0.775361137843859,0.7030234249900553
68,E1,E1.3,3,1,S1,11,TrialList2,birds,aircraft,fly,Attributive,aircraft{-}birds9,Easy,fly9,14423,aircraft{-}birds9,10410,1,aircraft,birds,1,1,na,,0,0,,0,na,,0,0,,0.0,0.7742629947138543,0.6834022733271825,0.696271677068394,0.7325000221644256,NA,NA,NA,NA,0.11067645587780484,0.3012041511414595,0.7170757159116516,0.6832165524379038,NA,NA,NA,NA,0.3324465763084191,0.6443078038519401,0.700574977585174,0.8233601145407198,NA,NA,NA,NA
69,E1,E1.3,3,1,S1,14,TrialList3,circle,dance,move,Attributive,circle{-}dance9,Easy,movement9,64933,aid{-}dance9,33764,0,aid,dance,0,1,geometry,geometry9,12765,1,circle{-}dance9,13194,na,,0,0,,0.0,0.5281395099082671,0.820350733374879,0.5342667866059262,0.7817943742365281,0.562877139548282,0.5464372209992238,0.6347626547110683,0.617209124760626,0.3398754240509272,0.33354196552062,0.314051323942921,0.39559895065658,0.3474957327739765,0.06282935385853516,0.25065758606502053,0.25088680359199356,0.24137403540261748,0.16705627879020601,0.34372590512928314,0.31148901675120755,0.735688365343195,0.06350758857933214,0.5497313649214355,0.4520965636183638
70,E1,E1.3,3,1,S1,16,TrialList3,hundred,economy,money,Hierarchical,economy{-}hundred9,Hard,money9,41786,economy{-}lawyer9,19047,0,economy,lawyer,0,1,number,number9,14868,1,economy{-}hundred9,17797,na,,0,0,,0.0,0.48419122805544745,0.6505637875796527,0.6528283627230301,0.755746030549181,0.698680948291818,0.534585253886686,0.72197666147774,0.7579524278815375,0.23288428386025095,0.3487168532031034,0.35969850489918587,0.4511404950306952,0.6105606657405085,0.2680455465355964,0.5595232221447687,0.5681565385760337,0.16097609250010425,0.3189549750516789,0.794766761164558,0.6614607006862679,0.6815500665225319,0.12005276426461897,0.589518117617442,0.5025934288116487
71,E1,E1.3,3,1,S1,15,TrialList3,famine,calorie,food,Hierarchical,calorie{-}famine9,Medium,food9,7440,calorie{-}famine9,23833,1,calorie,famine,1,1,na,,0,0,,0,na,,0,0,,0.0,0.6629580954407065,0.7454419575730311,0.7254245837545157,0.8063233536783713,NA,NA,NA,NA,0.034736565670402286,0.3062069689374608,0.3661151494801028,0.4673556552775243,NA,NA,NA,NA,0.3891058748847751,0.41351817344303665,0.5979939442379274,0.5884507353346573,NA,NA,NA,NA
72,E1,E1.3,3,1,S1,19,TrialList4,graph,copy,number,Attributive,copy{-}graph9,Medium,numbers9,66626,clock{-}graph9,28037,0,clock,graph,1,0,replicate,replicate9,24459,1,copy{-}graph9,15196,na,,0,0,,0.0,0.4988516338043415,0.6503213394307771,0.5753294204343816,0.7090388926457537,0.5132996037510715,0.7169209031584031,0.7070926891751952,0.74686717780069,0.12270590933688585,0.32311080780634427,0.4493233360127241,0.5154819491842509,0.1533760691342232,0.4021783294174017,0.3707478084833491,0.3740382074303381,0.13552496384812995,0.5036952167691304,0.12845149357637486,0.36894497929718595,0.08044456431544367,0.9119767097749224,0.7504407865352997,0.6278077375124952
73,E1,E1.3,3,1,S1,20,TrialList4,kitchen,egg,cook,Argument,egg{-}kitchen9,Easy,cook9,13205,egg{-}kitchen9,17943,1,egg,kitchen,1,1,na,,0,0,,0,na,,0,0,,0.0,0.7445174656024308,0.7804845042688769,0.77814277143255,0.8341979135728413,NA,NA,NA,NA,0.22233345320223408,0.5331150937326825,0.4550595525628286,0.6320098708368116,NA,NA,NA,NA,0.4430012273526396,0.809958925008679,0.6274359334434771,0.8510856651026565,NA,NA,NA,NA
74,E1,E1.3,3,1,S1,18,TrialList4,corpse,fight,kill,Coordinate,corpse{-}fight9,Hard,killing9,24131,corpse{-}fight9,35345,1,corpse,fight,1,1,na,,0,0,,0,na,,0,0,,0.0,0.6792666706282837,0.7311975910160952,0.7908740538633017,0.8298559826794485,NA,NA,NA,NA,0.20775701182287198,0.4688586423069816,0.554553092092634,0.6584845825240169,NA,NA,NA,NA,0.06299379523669957,0.3504905564831804,0.40219103687703117,0.5010324275210961,NA,NA,NA,NA
75,E1,E1.3,3,1,S1,23,TrialList5,near,astronaut,rocket,Locative,astronaut{-}near9,Hard,rocket9,73267,astronaut{-}sky9,18078,0,astronaut,sky,0,1,close,close9,10850,1,astronaut{-}near9,18331,na,,0,0,,0.0,0.684976547481126,0.5814219346309211,0.6623226091472608,0.6775452878353402,0.8151169631741535,0.6368058952152207,0.7908526167922065,0.7758371175973624,0.11814379866492664,0.2635132225492125,0.3153705946866797,0.3871039290034245,0.6288912523579457,0.14803418835627036,0.5195358604146799,0.4781670063901986,0.0696041693545516,0.060635400048316246,0.7659914427277669,0.6269970999727622,0.8039644798023308,0.05334367619889824,0.5104953682308273,0.37330785843508796
76,E1,E1.3,3,1,S1,22,TrialList5,homeless,apartment,home,Coordinate,apartment{-}homeless9,Easy,house9,15312,apartment{-}homeless9,17271,1,apartment,homeless,1,1,na,,0,0,,0,na,,0,0,,0.0,0.7206288784844671,0.4631961534033169,0.563377320229012,0.5547089607670743,NA,NA,NA,NA,0.3379569615595205,0.38191244744637276,0.5238721053929846,0.5537182506410242,NA,NA,NA,NA,0.21921945464091797,0.234950892385709,0.7324896704625922,0.6170220426210866,NA,NA,NA,NA
77,E1,E1.3,3,1,S1,24,TrialList5,onion,cigarette,smell,Attributive,cigarette{-}onion9,Medium,smelly9,48253,cigarette{-}onion9,29326,1,cigarette,onion,1,1,na,,0,0,,0,na,,0,0,,0.0,0.703224360177519,0.7021326595351702,0.6724951249493699,0.7450939977103314,NA,NA,NA,NA,0.17143134249509273,0.21790628007088864,0.2652700759466271,0.31566923339676767,NA,NA,NA,NA,0.09543047099466861,0.3967017659390053,0.4607907515680465,0.5804736315475695,NA,NA,NA,NA
78,E1,E1.3,3,1,S1,28,TrialList6,war,quiet,ceasefire,Temporal,quiet{-}war9,Medium,ceasefire9,32820,conquer{-}war9,38710,0,conquer,war,1,0,silence,silence9,11282,1,quiet{-}war9,9226,na,,0,0,,0.0,0.6215020998849403,NA,NA,NA,0.5433550220065547,0.7962948189695535,0.7457984763287143,NA,0.25201139624598945,NA,NA,NA,0.2770573191117571,0.47126408753810667,0.47289969202976834,NA,0.09187378393041379,NA,NA,NA,0.12114789076165244,0.9165385208329516,0.7429777696839532,NA
79,E1,E1.3,3,1,S1,26,TrialList6,definition,assist,teach,Coordinate,assist{-}definition9,Hard,teach9,47414,assist{-}definition9,18195,1,assist,definition,1,1,na,,0,0,,0,na,,0,0,,0.0,0.2630124124511132,0.7191424106656272,0.2873969447504038,0.6479943410700402,NA,NA,NA,NA,0.16015390872195268,0.20702045426383353,0.34939043171684725,0.36527741016871085,NA,NA,NA,NA,0.04719898003212997,0.2628951871356595,0.33678168092012983,0.413851034184335,NA,NA,NA,NA
80,E1,E1.3,3,1,S1,27,TrialList6,pants,collar,clothes,Hierarchical,collar{-}pants9,Easy,clothing9,15470,collar{-}pants9,13655,1,collar,pants,1,1,na,,0,0,,0,na,,0,0,,0.0,0.8751625945892642,0.8058118971640434,0.7045015447290744,0.7782112344605081,NA,NA,NA,NA,0.45526256232442197,0.4667149582936174,0.342721081784083,0.47445699875817415,NA,NA,NA,NA,0.4863225308658845,0.8498533117630436,0.5345900110398364,0.8083310668575073,NA,NA,NA,NA
81,E1,E1.3,3,1,S1,30,TrialList7,flat,alike,similar,Coordinate,alike{-}flat9,Hard,similar9,63433,alike{-}beauty9,33932,0,alike,beauty,0,1,smooth,smooth9,15398,1,alike{-}flat9,43361,na,,0,0,,0.0,0.6575328408388152,0.7142902225304424,0.7147250992452222,0.7848122642783553,0.7155025674608229,0.6252236013364272,0.7374295131227637,0.7497348971860429,0.16525538450600563,0.41513762296316226,0.2707460450991068,0.44928808528807096,0.4772581886099203,0.1418436964029659,0.40554267491095375,0.4492363932720085,0.10847299813008726,0.12174673633760147,0.9666006111529413,0.8944931633589319,0.3710969625802827,0.05430619874178977,0.19519107869726415,0.13114223900481048
82,E1,E1.3,3,1,S1,32,TrialList7,perjury,adultery,wrongdoing,Hierarchical,adultery{-}perjury9,Easy,wrongdoing9,50636,adultery{-}perjury9,19806,1,adultery,perjury,1,1,na,,0,0,,0,na,,0,0,,0.0,0.5832977551789396,0.7687412648046655,0.5282681641002429,0.7206267854856819,NA,NA,NA,NA,0.4050039450875955,0.44037305690995254,0.3359699060429264,0.46312673539101046,NA,NA,NA,NA,0.49396754037378066,0.6477061690843393,0.3608008245840084,0.5801506120870934,NA,NA,NA,NA
83,E1,E1.3,3,1,S1,31,TrialList7,heavy,feather,weight,Hierarchical,feather{-}heavy9,Medium,weight9,38165,feather{-}heavy9,30850,1,feather,heavy,1,1,na,,0,0,,0,na,,0,0,,0.0,0.7400216143269848,0.7891020139651678,0.8624752236192257,0.8858131084362404,NA,NA,NA,NA,0.18189630026155323,0.4441466443679407,0.2350956030802014,0.4417941936479739,NA,NA,NA,NA,0.09667100939457307,0.8097220074443683,0.08328788635115658,0.5496129699760618,NA,NA,NA,NA
84,E1,E1.3,3,1,S1,36,TrialList8,communicate,cooking,tell,Coordinate,communicate{-}cooking9,Hard,tell9,76917,clarify{-}communicate9,22909,0,clarify,communicate,1,0,baking,baking9,10304,1,communicate{-}cooking9,25504,na,,0,0,,0.0,0.7042828665419428,0.7894264754907556,0.6542781500253836,0.7847156624459586,0.7793785860487971,0.8241264740017332,0.8674740762038622,0.873140246372127,0.16776406192920068,0.39493686036602227,0.24645744115104073,0.41969379121449624,-0.08383006663538506,0.4284184790122447,0.22548005451525988,0.16724768131561663,0.017125657072758482,0.6857147818605768,0.02534320542246471,0.530064578829234,0.014839046632124653,0.7830870505787558,0.5200243108061064,0.36725062824393573
85,E1,E1.3,3,1,S1,34,TrialList8,bad,actress,boo,Attributive,actress{-}bad9,Medium,boo9,49398,bad{-}trash9,44233,0,bad,trash,1,0,theater,theater9,53758,0,actress{-}bow9,21852,television,television9,78950,1,actress{-}bad9,40389.0,0.43988575827573817,0.6356934327112329,0.4304307510878518,0.6329356931462677,0.5822153855262666,0.6473213025183313,0.7227584311550239,0.745992836786082,0.24005194213866987,0.18734755012167104,0.13933724488278287,0.20744070845143892,0.22880217319758855,0.38260300498006306,0.3882345423837541,0.3685297038495985,0.05962907737309786,0.2583121962672419,0.040115793662528376,0.1473666120532905,0.05922264820310286,0.7389708813002934,0.6723986068497799,0.5833999751873333
86,E1,E1.3,3,1,S1,35,TrialList8,breeze,bubble,blow,Attributive,breeze{-}bubble9,Easy,blow9,31801,breeze{-}bubble9,16958,1,breeze,bubble,1,1,na,,0,0,,0,na,,0,0,,0.0,0.770239211740487,0.8030124340437989,0.8876513229997302,0.9003168297169969,NA,NA,NA,NA,0.21730974411248194,0.43119727979842915,0.3696602869088528,0.5132627399440083,NA,NA,NA,NA,0.23135433877764755,0.4915285792692241,0.4293995577580658,0.5879370784156249,NA,NA,NA,NA
87,E1,E1.3,3,1,S1,40,TrialList9,toes,Dracula,blood,Attributive,Dracula{-}toes9,Hard,blood9,52715,Dracula{-}drink9,38634,0,Dracula,drink,0,1,feet,feet9,6816,1,Dracula{-}toes9,9187,na,,0,0,,0.0,0.49450218052063977,0.5126023981583013,0.5706933893817745,0.6260819196396252,0.7431457076293838,0.5852678725213198,0.7696638883565682,0.7924846294800231,-0.08339683212448401,-0.10596028708205885,0.28098668091420875,0.12927003543135385,0.12611178637664044,-0.07010650797719142,0.04136407236380546,0.025394288413773336,0.06788867481809979,0.12556888509832675,0.31700715007373037,0.30591802867969164,0.8475315390011143,0.04921934991476418,0.6002909079924059,0.5444409489421843
88,E1,E1.3,3,1,S1,38,TrialList9,bat,bounce,baseball,Coordinate,bat{-}bounce9,Easy,baseball9,58497,bat{-}drink9,39250,0,bat,drink,1,0,hop,hop9,33303,1,bat{-}bounce9,12967,na,,0,0,,0.0,0.7712406228046738,0.647175884947327,0.5152359201441954,0.61808415826041,0.7303255661754678,0.7705521409993683,0.7972769349234926,0.7372912712679742,0.3306467058027297,0.4037410366113019,0.20857337160453615,0.37534281157716065,0.1605822083293611,0.32695299157660385,0.2988543585461042,0.2924679926573506,0.42837009898396583,0.6709607616649595,0.48715339561422577,0.6766176551038314,0.38026142820048514,0.672462208109716,0.6346916794467145,0.5482788769795883
89,E1,E1.3,3,1,S1,39,TrialList9,lunch,almond,food,Hierarchical,almond{-}lunch9,Medium,food9,14801,almond{-}lunch9,15628,1,almond,lunch,1,1,na,,0,0,,0,na,,0,0,,0.0,0.5485966371479462,0.7674838170013165,0.6606283921786305,0.8070949145445829,NA,NA,NA,NA,0.1137609627794085,0.4245527162506235,0.18792561492043502,0.4103739127237287,NA,NA,NA,NA,0.21260010022496523,0.7934501401194639,0.36294411133221716,0.6985696690151261,NA,NA,NA,NA
90,E1,E1.4,4,1,S1,8,TrialList1,void,couch,alone,Attributive,couch{-}void9,Hard,alone9,50195,burglar{-}couch9,30407,0,burglar,couch,0,1,absence,absense9,10918,1,couch{-}void9,16372,na,,0,0,,0.0,0.5661940743724609,0.6520169119529436,0.5604201388193046,0.6853351713951894,0.7215778104398507,0.554670446357116,0.7216275089262575,0.7502657072466326,0.050816349010013306,0.26280311732657335,0.22828244153419353,0.33874957167043596,0.36818354525146124,0.07672566490326793,0.30689724303157595,0.43237308487979775,0.01901799621821787,0.42648554845793285,0.07527393350222655,0.3542126576404896,0.8033138184340118,0.04115704423524502,0.5974923950918495,0.6707148712537494
91,E1,E1.4,4,1,S1,7,TrialList1,giggle,abnormal,hilarious,Attributive,abnormal{-}giggle9,Medium,hilarious9,29251,adore{-}giggle9,31396,0,adore,giggle,1,0,weird,weird9,9691,1,abnormal{-}giggle9,18731,na,,0,0,,0.0,0.6141666973874521,0.7336456533606187,0.7391208449267961,0.8196358849019655,0.641071817811408,0.737014874458752,0.7690665739552305,0.7875106269217271,0.14924343674251184,0.28182222494730946,0.10082081740018634,0.25239039406474306,0.217640213301854,0.19200213024698076,0.2701990576742306,0.41207287305317586,0.02089786760681145,0.8933137541864675,0.15149721660007565,0.713208392830696,0.20312204945528023,0.8897409060723505,0.7806731844410969,0.6439499369255702
92,E1,E1.4,4,1,S1,6,TrialList1,exam,algebra,math,Hierarchical,algebra{-}exam9,Easy,math9,15070,algebra{-}exam9,15238,1,algebra,exam,1,1,na,,0,0,,0,na,,0,0,,0.0,0.5769354408873905,0.6922493243647114,0.6797565272161125,0.7726766273679712,NA,NA,NA,NA,0.23237704169170825,0.5101634446606568,0.25387494378825304,0.48666305527934706,NA,NA,NA,NA,0.25409660586148175,0.36225232578804967,0.9590594608285195,0.8937250186998037,NA,NA,NA,NA
93,E1,E1.4,4,1,S1,42,TrialList10,pendulum,dusk,hypnotize,Argument,dusk{-}pendulum9,Hard,hypnotize9,18366,pendulum{-}tourist9,30722,0,pendulum,tourist,1,0,dawn,dawn9,2924,1,dusk{-}pendulum9,8707,na,,0,0,,0.0,0.6975656423817038,0.5955471657812349,0.5714637284500983,0.6332377399522163,0.7044475449308064,0.8751053331786043,0.8580366292330147,0.8263254278858627,0.040764861847726874,0.0122281729291841,0.06964724712306158,0.05674952697700697,0.04403011882834629,0.7269149257694932,0.5343577709824932,0.46752625264460146,-0.0022915379047869777,0.6586389023005943,0.008563821737236799,0.5213010089075667,-0.03507138456044667,0.8264761623435588,0.487704932234424,0.22123455058611863
94,E1,E1.4,4,1,S1,44,TrialList10,tourist,comedy,Hawaii,Locative,comedy{-}tourist9,Medium,hawaii9,48607,tourist{-}valley9,25332,0,tourist,valley,1,0,funny,funny9,3382,1,comedy{-}tourist9,5347,na,,0,0,,0.0,0.646508680144063,0.6315020828900405,0.5873196847821672,0.6715886384465258,0.6629188451524936,0.6947255715016162,0.7481941302431748,0.7564718521161315,0.15384850085872914,0.25248399987726544,0.12845629560371885,0.2507653496649743,0.10482149236113758,0.48539540820350924,0.38852792505876943,0.28995894306410264,0.04427765460194233,0.35246464909238007,0.025642391137788212,0.2680935638121462,0.05615690055380018,0.856190100149019,0.6149957727870374,0.4791274992807284
95,E1,E1.4,4,1,S1,43,TrialList10,tea,bean,coffee,Coordinate,bean{-}tea9,Easy,coffee9,3379,bean{-}tea9,13215,1,bean,tea,1,1,na,,0,0,,0,na,,0,0,,0.0,0.8084679157212914,0.8757904911256337,0.7573005688550953,0.8569051152703231,NA,NA,NA,NA,0.4328598411884097,0.7377339609218128,0.5866473672862982,0.7823411889648689,NA,NA,NA,NA,0.3260674845999034,0.8126744714101315,0.36400138958133077,0.680293086013009,NA,NA,NA,NA
96,E1,E1.4,4,1,S1,11,TrialList2,birds,aircraft,fly,Attributive,aircraft{-}birds9,Easy,fly9,9406,birds{-}sphinx9,23129,0,birds,sphinx,1,0,plane,plane9,6499,1,aircraft{-}birds9,15299,na,,0,0,,0.0,0.7742629947138543,0.6834022733271825,0.696271677068394,0.7325000221644256,0.7021640108116493,0.7776576727254643,0.7861683235786324,0.8329222650231022,0.11067645587780484,0.3012041511414595,0.7170757159116516,0.6832165524379038,0.03973802962052386,0.6596651828878357,0.46926574025544276,0.5664679858482569,0.3324465763084191,0.6443078038519401,0.700574977585174,0.8233601145407198,0.38069514829434903,0.872751760983497,0.8156776599310339,0.8051156409391144
97,E1,E1.4,4,1,S1,10,TrialList2,beginning,brake,start,Coordinate,beginning{-}brake9,Hard,start9,62636,gas{-}stop9,12543,0,gas,stop,0,0,snap,snap9,26288,0,brake{-}stop9,6088,first,first9,13466,0,brake{-}gas9,15036.0,0.708221608592075,0.6985775212098153,0.5575014802937479,0.6819566286515905,0.5890296642701112,0.5611374311501807,0.6226929451965195,0.6335011108833664,0.14813935056624616,0.7040919516318082,0.2136149643517551,0.6056081477971104,0.1766283867998394,0.1638373889471233,0.22467831791881832,0.26296307331076285,0.11965930100489652,0.8917374501061038,0.2343611415879141,0.775361137843859,0.03301954473792379,0.24725527267140368,0.17935610159748117,0.15240547128712933
98,E1,E1.4,4,1,S1,12,TrialList2,school,stop,bus,Attributive,school{-}stop9,Medium,bus9,34401,school{-}stop9,28565,1,school,stop,1,1,na,,0,0,,0,na,,0,0,,0.0,0.5892210126765406,0.6581602073880888,0.6558096425285498,0.7368412439754848,NA,NA,NA,NA,0.30478406256375634,0.3188292804186146,0.518264216219509,0.5181907430124252,NA,NA,NA,NA,0.13428977182087065,0.14359497491565854,0.25615416596097584,0.27087001063238314,NA,NA,NA,NA
99,E1,E1.4,4,1,S1,15,TrialList3,famine,calorie,anorexia,Attributive,calorie{-}famine9,Medium,anorexia9,27488,famine{-}ill9,12120,0,famine,ill,1,0,food,food9,21034,1,calorie{-}famine9,9637,na,,0,0,,0.0,0.6629580954407065,0.5239214781790106,0.5322090146381269,0.5791697551297559,0.7454419575730311,0.7254245837545157,0.8063233536783713,0.7668847079907023,0.034736565670402286,0.1343246963679774,0.12689929329563265,0.18158633459691487,0.3062069689374608,0.3661151494801028,0.4673556552775243,0.4458111580431192,0.3891058748847751,0.6868979367272486,0.5367886669308344,0.7436794887633511,0.41351817344303665,0.5979939442379274,0.5884507353346573,0.5368887679921264
100,E1,E1.4,4,1,S1,14,TrialList3,circle,dance,moshpit,Attributive,circle{-}dance9,Easy,moshpit9,16928,circle{-}dance9,14623,1,circle,dance,1,1,na,,0,0,,0,na,,0,0,,0.0,0.5281395099082671,NA,NA,NA,NA,NA,NA,NA,0.3398754240509272,NA,NA,NA,NA,NA,NA,NA,0.24137403540261748,NA,NA,NA,NA,NA,NA,NA
101,E1,E1.4,4,1,S1,16,TrialList3,hundred,economy,money,Hierarchical,economy{-}hundred9,Hard,money9,8652,economy{-}hundred9,33133,1,economy,hundred,1,1,na,,0,0,,0,na,,0,0,,0.0,0.48419122805544745,0.6505637875796527,0.6528283627230301,0.755746030549181,NA,NA,NA,NA,0.23288428386025095,0.3487168532031034,0.35969850489918587,0.4511404950306952,NA,NA,NA,NA,0.16097609250010425,0.3189549750516789,0.794766761164558,0.6614607006862679,NA,NA,NA,NA
102,E1,E1.4,4,1,S1,18,TrialList4,corpse,fight,abuse,Coordinate,corpse{-}fight9,Hard,abused9,21550,cautious{-}fight9,34163,0,cautious,fight,0,1,dead,dead9,5229,1,corpse{-}fight9,17662,na,,0,0,,0.0,0.6792666706282837,0.7635847467312322,0.6682110557888402,0.7822908232353737,0.7770687002221013,0.5876492040644601,0.7467172633860607,0.7492676373723065,0.20775701182287198,0.21318448645903731,0.2816292605673094,0.31837354689444775,0.7045993574381713,0.3830646995221716,0.6998258723301795,0.6154405616087869,0.06299379523669957,0.0524890418724856,0.4434480052573344,0.283291699814874,0.9147248660800525,0.11434549311985542,0.7993244334282321,0.6827169007478423
103,E1,E1.4,4,1,S1,19,TrialList4,graph,copy,homework,Attributive,copy{-}graph9,Medium,homework9,26329,copy{-}graph9,20807,1,copy,graph,1,1,na,,0,0,,0,na,,0,0,,0.0,0.4988516338043415,0.5705196703100066,0.6366804382861717,0.6960607891836211,NA,NA,NA,NA,0.12270590933688585,0.11678725511884491,0.09384730210337411,0.14056643190481377,NA,NA,NA,NA,0.13552496384812995,0.3235996459143027,0.16876578754981675,0.30392804023255415,NA,NA,NA,NA
104,E1,E1.4,4,1,S1,20,TrialList4,kitchen,egg,scramble,Argument,egg{-}kitchen9,Easy,scrambled9,27978,egg{-}kitchen9,14166,1,egg,kitchen,1,1,na,,0,0,,0,na,,0,0,,0.0,0.7445174656024308,0.7279213594094462,0.8600359639763197,0.8536504085297931,NA,NA,NA,NA,0.22233345320223408,0.05214362264244099,0.3389097816379085,0.2501072118543468,NA,NA,NA,NA,0.4430012273526396,0.2530569430697589,0.435702873859243,0.3998490931325782,NA,NA,NA,NA
105,E1,E1.4,4,1,S1,23,TrialList5,near,astronaut,space,Locative,astronaut{-}near9,Hard,space9,11025,astronaut{-}sky9,12955,0,astronaut,sky,0,1,close,close9,4180,1,astronaut{-}near9,11504,na,,0,0,,0.0,0.684976547481126,0.7267659095840446,0.7255141680793586,0.7911123790019564,0.8151169631741535,0.6368058952152207,0.7908526167922065,0.7935254224934296,0.11814379866492664,0.30030911903527335,0.46529570587207814,0.5119656569429226,0.6288912523579457,0.14803418835627036,0.5195358604146799,0.5600909301887843,0.0696041693545516,0.24395402220967788,0.8097486882719422,0.7678004969158394,0.8039644798023308,0.05334367619889824,0.5104953682308273,0.44712899363710523
106,E1,E1.4,4,1,S1,24,TrialList5,onion,cigarette,smell,Attributive,cigarette{-}onion9,Medium,smelly9,8827,cigarette{-}flower9,8621,0,cigarette,flower,0,1,cry,cry9,9244,0,flower{-}onion9,13260,tobacco,tobacco9,14256,1,cigarette{-}onion9,7362.0,0.703224360177519,0.7021326595351702,0.6724951249493699,0.7450939977103314,0.619362344002267,0.6108384317111194,0.6666087549571834,0.7037173508301501,0.17143134249509273,0.21790628007088864,0.2652700759466271,0.31566923339676767,0.05949510816926251,0.13385141386767296,0.12631733168297,0.25160722087940124,0.09543047099466861,0.3967017659390053,0.4607907515680465,0.5804736315475695,0.12887802907683465,0.03478614032418437,0.10016701625885849,0.11192480122268855
107,E1,E1.4,4,1,S1,22,TrialList5,homeless,apartment,house,Coordinate,apartment{-}homeless9,Easy,house9,31516,apartment{-}homeless9,15827,1,apartment,homeless,1,1,na,,0,0,,0,na,,0,0,,0.0,0.7206288784844671,0.5468872764893193,0.7561143525199614,0.7051801753144941,NA,NA,NA,NA,0.3379569615595205,0.34009879422475664,0.6195477556840471,0.5866448095904907,NA,NA,NA,NA,0.21921945464091797,0.22760394112720672,0.8520791155385672,0.6882605987468339,NA,NA,NA,NA
108,E1,E1.4,4,1,S1,26,TrialList6,definition,assist,dictionary,Attributive,assist{-}definition9,Hard,dictionary9,36910,definition{-}experiment9,23645,0,definition,experiment,1,0,help,help9,2595,1,assist{-}definition9,7958,na,,0,0,,0.0,0.2630124124511132,0.6497493898702605,0.3472755814283116,0.6374398567992523,0.6529135503283978,0.36877682772079334,0.6522959678316068,0.6586947268258384,0.16015390872195268,0.3957531077506511,0.12371923623378989,0.3410276818660446,0.21369832807640332,0.7325273578713993,0.6211863844511812,0.542883372139826,0.04719898003212997,0.8467850845166273,0.037641665362488586,0.6165800873630919,0.12329989565088473,0.8966788703833266,0.6995256188036479,0.5126755800315604
109,E1,E1.4,4,1,S1,28,TrialList6,war,quiet,peace,Coordinate,quiet{-}war9,Medium,peace9,8389,war{-}welfare9,23671,0,war,welfare,1,0,library,library9,8572,1,quiet{-}war9,11752,na,,0,0,,0.0,0.6215020998849403,0.7425513808600187,0.7905078752232552,0.8516486597305565,0.5485068843594427,0.5542629560920042,0.6123963211247967,0.6235331480187465,0.25201139624598945,0.5433544361801456,0.36704376756896273,0.5753236837363059,0.20216990170388904,0.12678515391926315,0.20788225804984306,0.19800671482130905,0.09187378393041379,0.3012084211642161,0.6028103783432457,0.6263118087244012,0.05800372144179933,0.37971041504936087,0.3126616014329133,0.3026641719930102
110,E1,E1.4,4,1,S1,27,TrialList6,pants,collar,cloth,Hierarchical,collar{-}pants9,Easy,clothing9,16194,collar{-}pants9,7694,1,collar,pants,1,1,na,,0,0,,0,na,,0,0,,0.0,0.8751625945892642,0.8739087108815274,0.8567552369157787,0.8933629824258544,NA,NA,NA,NA,0.45526256232442197,0.3961877443816999,0.3891960813553187,0.46035861690079627,NA,NA,NA,NA,0.4863225308658845,0.5907833530215404,0.4477423212052548,0.6047374266345235,NA,NA,NA,NA
111,E1,E1.4,4,1,S1,31,TrialList7,heavy,feather,might,Attributive,feather{-}heavy9,Medium,mighty9,25718,competition{-}heavy9,17917,0,competition,heavy,1,0,bird,bird9,13127,1,feather{-}heavy9,18204,na,,0,0,,0.0,0.7400216143269848,0.6899996401688383,0.8129680010006788,0.8064830122383413,0.6634290860727389,0.8017139349869112,0.7863096538164193,0.7895174104054321,0.18189630026155323,0.381338182828157,0.22522049566552815,0.3945191917651183,0.25130798834324586,0.4987382474987003,0.48784667989071717,0.5170251689594801,0.09667100939457307,0.10957334221361403,0.036957670336979054,0.09343576362772144,0.06236755732585286,0.8256229813881949,0.6502238362813515,0.5060643318932689
112,E1,E1.4,4,1,S1,30,TrialList7,flat,alike,desert,Attributive,alike{-}flat9,Hard,desert9,39634,float{-}herb9,32492,0,float,herb,0,0,similar,similar9,6521,0,grocery{-}herb9,24543,paper,paper9,6521,0,grocery{-}receipt9,35598.0,0.6575328408388152,0.7294909063438445,0.6434562044685734,0.7550735701256639,0.7142902225304424,0.7147250992452222,0.7848122642783553,0.8095626553845049,0.16525538450600563,0.38952185653502747,0.14417265788031686,0.34959657981460435,0.41513762296316226,0.2707460450991068,0.44928808528807096,0.4719869884780843,0.10847299813008726,0.3135160611504215,0.007253126416863376,0.13109508119633972,0.12174673633760147,0.9666006111529413,0.8944931633589319,0.7392470060259716
113,E1,E1.4,4,1,S1,32,TrialList7,perjury,adultery,crime,Hierarchical,adultery{-}perjury9,Easy,crime9,12385,adultery{-}perjury9,16885,1,adultery,perjury,1,1,na,,0,0,,0,na,,0,0,,0.0,0.5832977551789396,0.6691414157639194,0.7312697734560999,0.7886605710004163,NA,NA,NA,NA,0.4050039450875955,0.33724286470246734,0.4304196156268977,0.4579483976472999,NA,NA,NA,NA,0.49396754037378066,0.5324193659706473,0.22806021482220895,0.4364748312253386,NA,NA,NA,NA
114,E1,E1.4,4,1,S1,34,TrialList8,bad,actress,music,Attributive,actress{-}bad9,Medium,musical9,33024,actress{-}bow9,23131,0,actress,bow,0,1,horrible,horrible9,5541,1,actress{-}bad9,13555,na,,0,0,,0.0,0.43988575827573817,0.5567710270793653,0.5805595308871795,0.6694250629930637,0.7661899507294795,0.4821160583979658,0.7421353475797261,0.7377534065488304,0.24005194213866987,0.2879903655657967,0.29681537133638924,0.3713442366228996,0.49643659768641324,0.06643274445686553,0.35741491158722005,0.32355871807553394,0.05962907737309786,0.060518928894653934,0.23066210328353676,0.2281498017038931,0.7658304988028263,0.07296886963181748,0.3966822362997392,0.3201841172081248
115,E1,E1.4,4,1,S1,36,TrialList8,communicate,cooking,bake,Coordinate,communicate{-}cooking9,Hard,bake9,56659,cooking{-}sauce9,24254,0,cooking,sauce,0,1,talk,talk9,2842,1,communicate{-}cooking9,15100,na,,0,0,,0.0,0.7042828665419428,0.5582860814896243,0.6383925065767624,0.6464037068599988,0.8604470344578024,0.7192092922461787,0.8584716115936467,0.8235046655632742,0.16776406192920068,0.04693906741040843,0.6028247289001853,0.4251703456609658,0.42715375101185105,0.28612582829697386,0.4667316350117896,0.37406296117278715,0.017125657072758482,0.017373703268517837,0.8313023701964786,0.5532567577775707,0.8629072051267993,0.03898973997065547,0.6716487821247271,0.4590488648143283
116,E1,E1.4,4,1,S1,35,TrialList8,breeze,bubble,sea,Locative,breeze{-}bubble9,Easy,sea9,16123,breeze{-}bubble9,30081,1,breeze,bubble,1,1,na,,0,0,,0,na,,0,0,,0.0,0.770239211740487,0.6825867661732241,0.6822856065917944,0.725281309276338,NA,NA,NA,NA,0.21730974411248194,0.349729398861244,0.26230169665241276,0.3922454768251933,NA,NA,NA,NA,0.23135433877764755,0.5577348963201094,0.2460302621680901,0.5184974867586909,NA,NA,NA,NA
117,E1,E1.4,4,1,S1,40,TrialList9,toes,Dracula,blood,Attributive,Dracula{-}toes9,Hard,blood9,30912,Dracula{-}drink9,20447,0,Dracula,drink,0,1,feet,feet9,2501,1,Dracula{-}toes9,11277,na,,0,0,,0.0,0.49450218052063977,0.5126023981583013,0.5706933893817745,0.6260819196396252,0.7431457076293838,0.5852678725213198,0.7696638883565682,0.7924846294800231,-0.08339683212448401,-0.10596028708205885,0.28098668091420875,0.12927003543135385,0.12611178637664044,-0.07010650797719142,0.04136407236380546,0.025394288413773336,0.06788867481809979,0.12556888509832675,0.31700715007373037,0.30591802867969164,0.8475315390011143,0.04921934991476418,0.6002909079924059,0.5444409489421843
118,E1,E1.4,4,1,S1,39,TrialList9,lunch,almond,milk,Attributive,almond{-}lunch9,Medium,milk9,11898,drink{-}lunch9,10850,0,drink,lunch,1,0,nut,nut9,8974,0,almond{-}drink9,13947,meal,meal9,2253,1,almond{-}lunch9,8053.0,0.5485966371479462,0.6980284639075528,0.7368426677539119,0.8162472341285699,0.5112251802945593,0.7378793859105024,0.7176070175202168,0.7706564199411016,0.1137609627794085,0.3775644811696963,0.39883225137041767,0.5202028228099818,0.12291254074092717,0.5308258433503559,0.43801902552027583,0.45549165109034084,0.21260010022496523,0.4629928824306049,0.45649766611661957,0.5859904928134446,0.15306398827274725,0.9132714541608788,0.7493783074813317,0.6946567408670513
119,E1,E1.4,4,1,S1,38,TrialList9,bat,bounce,ball,Coordinate,bat{-}bounce9,Easy,ball9,14395,bat{-}bounce9,14759,1,bat,bounce,1,1,na,,0,0,,0,na,,0,0,,0.0,0.7712406228046738,0.7543070660947083,0.6757697625614555,0.7600988867903951,NA,NA,NA,NA,0.3306467058027297,0.4993170861825733,0.602299342991556,0.675280212342926,NA,NA,NA,NA,0.42837009898396583,0.6228906743951373,0.6651761629133046,0.7630956102762579,NA,NA,NA,NA
120,E1,E1.5,5,1,S1,7,TrialList1,giggle,abnormal,weird,Coordinate,abnormal{-}giggle9,Medium,weird9,37564,abnormal{-}rumor9,30033,0,abnormal,rumor,0,1,laugh,laugh9,6998,1,abnormal{-}giggle9,24402,na,,0,0,,0.0,0.6141666973874521,0.641071817811408,0.737014874458752,0.7690665739552305,0.881681287050433,0.7018752784133574,0.8769536139849143,0.8578734587712805,0.14924343674251184,0.217640213301854,0.19200213024698076,0.2701990576742306,0.5301232598650764,0.10218180388861142,0.41706684529014226,0.4906456333982101,0.02089786760681145,0.20312204945528023,0.8897409060723505,0.7806731844410969,0.9165326138508355,0.052690252148033356,0.6574464111487437,0.5405850729470258
121,E1,E1.5,5,1,S1,6,TrialList1,exam,algebra,test,Coordinate,algebra{-}exam9,Easy,test9,28014,algebra{-}exam9,33104,1,algebra,exam,1,1,na,,0,0,,0,na,,0,0,,0.0,0.5769354408873905,0.7213327536919758,0.5596232462794831,0.7249056034534795,NA,NA,NA,NA,0.23237704169170825,0.46543079650494446,0.11096108797468085,0.3671394494438811,NA,NA,NA,NA,0.25409660586148175,0.9330158330694652,0.32364521126708456,0.7170870357631501,NA,NA,NA,NA
122,E1,E1.5,5,1,S1,8,TrialList1,void,couch,lazy,Attributive,couch{-}void9,Hard,lazy9,15083,couch{-}void9,42130,1,couch,void,1,1,na,,0,0,,0,na,,0,0,,0.0,0.5661940743724609,0.6902375438460222,0.6129167353468855,0.7365466887760049,NA,NA,NA,NA,0.050816349010013306,0.06922440496818827,0.20944879448838738,0.1922280657851272,NA,NA,NA,NA,0.01901799621821787,0.14531268918458395,0.5847647989259113,0.5079146538943616,NA,NA,NA,NA
123,E1,E1.5,5,1,S1,43,TrialList10,tea,bean,food,Hierarchical,bean{-}tea9,Easy,food9,8044,bean{-}strawberyy9,17908,0,bean,strawberry,0,1,green,green9,10671,1,bean{-}tea9,20199,na,,0,0,,0.0,0.8084679157212914,0.8133860686064988,0.7462657720972696,0.8190528304671565,0.6142660833745168,0.6010842396328164,0.6388222495871839,0.6459721585030901,0.4328598411884097,0.45641706058918086,0.4010079196334355,0.506499800579128,0.37175469798248173,0.39449719653913395,0.4526418530938353,0.47529369065279026,0.3260674845999034,0.5038278073597544,0.549208429417787,0.6472836908136184,0.251010212512108,0.4849667044916831,0.46980264943271366,0.449297117964335
124,E1,E1.5,5,1,S1,44,TrialList10,tourist,comedy,entertain,Attributive,comedy{-}tourist9,Medium,entertained9,11342,comedy{-}tourist9,14892,1,comedy,tourist,1,1,na,,0,0,,0,na,,0,0,,0.0,0.646508680144063,0.7363995565505095,0.5519855508933288,0.7097283883186265,NA,NA,NA,NA,0.15384850085872914,0.3617860798386171,0.3048574353368363,0.43883804051560804,NA,NA,NA,NA,0.04427765460194233,0.12370601092022859,0.8110888907187128,0.6327844510959002,NA,NA,NA,NA
125,E1,E1.5,5,1,S1,42,TrialList10,pendulum,dusk,clock,Attributive,dusk{-}pendulum9,Hard,clock9,3752,dusk{-}pendulum9,23820,1,dusk,pendulum,1,1,na,,0,0,,0,na,,0,0,,0.0,0.6975656423817038,0.7415423090160329,0.7643989053685006,0.8173978418732993,NA,NA,NA,NA,0.040764861847726874,0.45211455631493924,0.1185215113806346,0.39551949883395143,NA,NA,NA,NA,-0.0022915379047869777,0.29793919823888293,0.2544286490189134,0.39199542468922643,NA,NA,NA,NA
126,E1,E1.5,5,1,S1,12,TrialList2,school,stop,education,Locative,school{-}stop9,Medium,education9,34714,perform{-}school9,22642,0,perform,school,1,0,end,end9,29830,1,school{-}stop9,15761,na,,0,0,,0.0,0.5892210126765406,0.7021485289713522,0.41657782678232647,0.6215098522099458,0.5061673080130364,0.5734982033809957,0.6068766100788388,0.57254388966579,0.30478406256375634,0.6973375949179164,0.2715762169078402,0.5997922136376538,0.3958954689247962,0.5555951972685785,0.58900667199216,0.5219526064204498,0.13428977182087065,0.8941961883488868,0.05098752365629422,0.5798320426274157,0.17752559922407818,0.5373493573940316,0.4930628851968174,0.35756016001763435
127,E1,E1.5,5,1,S1,10,TrialList2,beginning,brake,start,Coordinate,beginning{-}brake9,Hard,start9,34798,beginning{-}trigger9,28626,0,beginning,trigger,1,0,ruin,ruin9,22568,0,beginning{-}stop9,15700,destroy,destroy9,29935,0,beginning{-}killer9,30997.0,0.708221608592075,0.6985775212098153,0.5575014802937479,0.6819566286515905,0.7529136615318266,0.7779676272430038,0.8277277933509626,0.7817200233034614,0.14813935056624616,0.7040919516318082,0.2136149643517551,0.6056081477971104,0.3603086439818046,0.06444026930283975,0.2802979892920274,0.3182205859351077,0.11965930100489652,0.8917374501061038,0.2343611415879141,0.775361137843859,0.022009359647858995,0.19723526865486052,0.14002561302684002,0.09781512928824809
128,E1,E1.5,5,1,S1,11,TrialList2,birds,aircraft,fly,Attributive,aircraft{-}birds9,Easy,fly9,6841,aircraft{-}birds9,16715,1,aircraft,birds,1,1,na,,0,0,,0,na,,0,0,,0.0,0.7742629947138543,0.6834022733271825,0.696271677068394,0.7325000221644256,NA,NA,NA,NA,0.11067645587780484,0.3012041511414595,0.7170757159116516,0.6832165524379038,NA,NA,NA,NA,0.3324465763084191,0.6443078038519401,0.700574977585174,0.8233601145407198,NA,NA,NA,NA
129,E1,E1.5,5,1,S1,16,TrialList3,hundred,economy,cash,Hierarchical,economy{-}hundred9,Hard,cash9,16754,economy{-}lawyer9,19214,0,economy,lawyer,0,1,bill,bill9,11966,1,economy{-}hundred9,17098,na,,0,0,,0.0,0.48419122805544745,0.6882464665379392,0.5864228374321508,0.7434047882668205,0.5528319629105628,0.5244199035827619,0.625878558429742,0.6976541163952106,0.23288428386025095,0.2641186537504805,0.3290363249423298,0.377739171386569,0.2193870508390604,0.15681612011497015,0.2395776478660787,0.30770962393410506,0.16097609250010425,0.341385161600287,0.7267482659077948,0.6432906292024778,0.2494418879561806,0.5208876890814107,0.4647487378829538,0.6367671362694273
130,E1,E1.5,5,1,S1,14,TrialList3,circle,dance,party,Temporal,circle{-}dance9,Easy,party9,4596,college{-}dance9,14646,0,college,dance,0,1,danceoff,danceoff9,25643,1,circle{-}dance9,12542,na,,0,0,,0.0,0.5281395099082671,0.4833498019443313,0.5523159195499511,0.5905070537492384,NA,NA,NA,NA,0.3398754240509272,0.3229133902115153,0.3338980860041032,0.4012301167070156,NA,NA,NA,NA,0.24137403540261748,0.11365656829187831,0.4835089943001387,0.35343263756869336,NA,NA,NA,NA
131,E1,E1.5,5,1,S1,15,TrialList3,famine,calorie,food,Hierarchical,calorie{-}famine9,Medium,food9,9337,calorie{-}disgust9,15319,0,calorie,disgust,0,1,eat,eat9,4921,0,disgust{-}famine9,42158,hunger,hunger9,23384,0,aid{-}famine9,42347.0,0.6629580954407065,0.7454419575730311,0.7254245837545157,0.8063233536783713,0.665603916373304,0.642484408391277,0.7170413060436497,0.7867539025960717,0.034736565670402286,0.3062069689374608,0.3661151494801028,0.4673556552775243,0.21380848337362302,0.31098543648823584,0.36480341656222337,0.585393529788286,0.3891058748847751,0.41351817344303665,0.5979939442379274,0.5884507353346573,0.4383142402566911,0.6205291620234161,0.6169137224103021,0.7856798484444498
132,E1,E1.5,5,1,S1,19,TrialList4,graph,copy,work,Attributive,copy{-}graph9,Medium,work9,26544,extension{-}teacher9,15686,0,extension,teacher,0,0,homework,homework9,18410,0,teacher{-}graph9,17012,statistics,stats9,9091,0,ceiling{-}graph9,43737.0,0.4988516338043415,0.6025373248188917,0.5684749602649452,0.676811969068105,0.5705196703100066,0.6366804382861717,0.6960607891836211,0.7662627766317693,0.12270590933688585,0.11371396437635994,0.3387293568744836,0.3019368948115928,0.11678725511884491,0.09384730210337411,0.14056643190481377,0.1920307839552594,0.13552496384812995,0.15031195664091723,0.13246017234754803,0.18311604939269843,0.3235996459143027,0.16876578754981675,0.30392804023255415,0.4732969507215318
133,E1,E1.5,5,1,S1,20,TrialList4,kitchen,egg,cook,Argument,egg{-}kitchen9,Easy,cook9,8361,egg{-}kitchen9,18046,1,egg,kitchen,1,1,na,,0,0,,0,na,,0,0,,0.0,0.7445174656024308,0.7804845042688769,0.77814277143255,0.8341979135728413,NA,NA,NA,NA,0.22233345320223408,0.5331150937326825,0.4550595525628286,0.6320098708368116,NA,NA,NA,NA,0.4430012273526396,0.809958925008679,0.6274359334434771,0.8510856651026565,NA,NA,NA,NA
134,E1,E1.5,5,1,S1,18,TrialList4,corpse,fight,death,Argument,corpse{-}fight9,Hard,death9,10336,corpse{-}fight9,33389,1,corpse,fight,1,1,na,,0,0,,0,na,,0,0,,0.0,0.6792666706282837,0.7887406958428539,0.6655572506811988,0.7948726548759991,NA,NA,NA,NA,0.20775701182287198,0.4062250766474258,0.38334063930716256,0.5080231472716064,NA,NA,NA,NA,0.06299379523669957,0.7800385734603185,0.20348891168838223,0.7392244247774041,NA,NA,NA,NA
135,E1,E1.5,5,1,S1,24,TrialList5,onion,cigarette,gross,Attributive,cigarette{-}onion9,Medium,gross9,3199,oyster{-}war9,42818,0,oyster,war,0,0,smelly,smelly9,48599,1,cigarette{-}onion9,27476,na,,0,0,,0.0,0.703224360177519,0.7811013191665541,0.6483474708861832,0.7759470826798462,0.5179856430451601,0.5854085650343263,0.5970578262799054,0.6040693948588124,0.17143134249509273,-0.032207661825875755,0.11071229609421096,0.051288719974501795,0.06591688344845581,0.09241962043947238,0.10344455415879428,0.11531342311858617,0.09543047099466861,0.27767652629760586,0.2653992111330641,0.36234871572157856,0.267415601608576,0.3720399866456564,0.43855385631750576,0.6325805818221419
136,E1,E1.5,5,1,S1,23,TrialList5,near,astronaut,space,Locative,astronaut{-}near9,Hard,space9,25977,astronaut{-}sky9,14661,0,astronaut,sky,0,1,together,together9,8274,0,astronaut{-}combination9,29754,close,close9,4275,1,astronaut{-}near9,16179.0,0.684976547481126,0.7267659095840446,0.7255141680793586,0.7911123790019564,0.6436649108262473,0.5399514451059655,0.6447231984137045,0.6601192619866757,0.11814379866492664,0.30030911903527335,0.46529570587207814,0.5119656569429226,0.3793405578032958,0.20504327474241624,0.3907818384157107,0.45418134948557864,0.0696041693545516,0.24395402220967788,0.8097486882719422,0.7678004969158394,0.3401714504096741,0.010359823755099473,0.20656867778574173,0.18429805173063696
137,E1,E1.5,5,1,S1,22,TrialList5,homeless,apartment,house,Coordinate,apartment{-}homeless9,Easy,housing9,5093,apartment{-}homeless9,11813,1,apartment,homeless,1,1,na,,0,0,,0,na,,0,0,,0.0,0.7206288784844671,0.5468872764893193,0.7561143525199614,0.7051801753144941,NA,NA,NA,NA,0.3379569615595205,0.34009879422475664,0.6195477556840471,0.5866448095904907,NA,NA,NA,NA,0.21921945464091797,0.22760394112720672,0.8520791155385672,0.6882605987468339,NA,NA,NA,NA
138,E1,E1.5,5,1,S1,27,TrialList6,pants,collar,cloth,Hierarchical,collar{-}pants9,Easy,clothing9,6715,collar{-}necklace9,9930,0,collar,necklace,0,1,dress,dressed9,11099,0,cover{-}pants9,20203,outfit,outfit9,9105,0,pants{-}pieces9,14016.0,0.8751625945892642,0.8739087108815274,0.8567552369157787,0.8933629824258544,0.8499716613359771,0.8293627273094231,0.8668022089581967,0.8647829453117313,0.45526256232442197,0.3961877443816999,0.3891960813553187,0.46035861690079627,0.4981086564793812,0.4193881900799419,0.5377976520659142,0.6048184870891824,0.4863225308658845,0.5907833530215404,0.4477423212052548,0.6047374266345235,0.6973573882432499,0.5307723600469907,0.7150999245302218,0.727119328058524
139,E1,E1.5,5,1,S1,26,TrialList6,definition,assist,dictionary,Attributive,assist{-}definition9,Hard,dictionary9,11959,definition{-}quiet9,28859,0,definition,quiet,1,0,help,help9,4137,0,definition{-}welfare9,23230,teach,teach9,53699,1,assist{-}definition9,12597.0,0.2630124124511132,0.6497493898702605,0.3472755814283116,0.6374398567992523,0.6529135503283978,0.36877682772079334,0.6522959678316068,0.6586947268258384,0.16015390872195268,0.3957531077506511,0.12371923623378989,0.3410276818660446,0.21369832807640332,0.7325273578713993,0.6211863844511812,0.542883372139826,0.04719898003212997,0.8467850845166273,0.037641665362488586,0.6165800873630919,0.12329989565088473,0.8966788703833266,0.6995256188036479,0.5126755800315604
140,E1,E1.5,5,1,S1,28,TrialList6,war,quiet,fight,Attributive,quiet{-}war9,Medium,fight9,29851,conquer{-}war9,7516,0,conquer,war,1,0,silent,silent9,15639,1,quiet{-}war9,15888,na,,0,0,,0.0,0.6215020998849403,0.661553401548965,0.6619770875236877,0.7349414082594266,0.6154769454002774,0.9015306667884082,0.8445327714754536,0.8426825444847299,0.25201139624598945,0.5925134671895274,0.18061093553107932,0.4885738746745767,0.2868871827032715,0.4472307217385574,0.46392382698287815,0.433031162291754,0.09187378393041379,0.6934409490996427,0.07399052021954522,0.4847899388955672,0.12119103075088422,0.8995788787252583,0.730649457500748,0.5296123377412977
141,E1,E1.5,5,1,S1,30,TrialList7,flat,alike,same,Coordinate,alike{-}flat9,Hard,same9,6207,alike{-}competition9,37321,0,alike,competition,0,1,straight,straight9,11771,1,alike{-}flat9,13704,na,,0,0,,0.0,0.6575328408388152,0.5697093042551942,0.6253611948425277,0.6556562903859752,0.7813314968237275,0.6749375263863763,0.801082279871241,0.803853000063477,0.16525538450600563,-0.14076607853748113,-0.11037932249245253,-0.16451279123675988,0.4882582559576747,0.12905422932850608,0.4043705281187058,0.25449324724459044,0.10847299813008726,0.1842656367777875,0.9138097220776211,0.8731620753460793,0.40478685407564985,0.10319775765001726,0.25139015759242445,0.2297799066913102
142,E1,E1.5,5,1,S1,31,TrialList7,heavy,feather,opposite,Hierarchical,feather{-}heavy9,Medium,opposites9,18187,baby{-}man9,26471,0,baby,man,0,0,weight,weight9,9172,1,feather{-}heavy9,22296,na,,0,0,,0.0,0.7400216143269848,0.6915088588740238,0.7990665870572192,0.7997371826506094,0.7891020139651678,0.8624752236192257,0.8858131084362404,0.8858036151521256,0.18189630026155323,0.1890563360671218,0.1317821523295889,0.20868045544991798,0.4441466443679407,0.2350956030802014,0.4417941936479739,0.46255020181663054,0.09667100939457307,0.025346998762541872,0.009132151674828726,0.022046548119872722,0.8097220074443683,0.08328788635115658,0.5496129699760618,0.4136411542143763
143,E1,E1.5,5,1,S1,32,TrialList7,perjury,adultery,crime,Hierarchical,adultery{-}perjury9,Easy,crimes9,6564,adultery{-}perjury9,14113,1,adultery,perjury,1,1,na,,0,0,,0,na,,0,0,,0.0,0.5832977551789396,0.6691414157639194,0.7312697734560999,0.7886605710004163,NA,NA,NA,NA,0.4050039450875955,0.33724286470246734,0.4304196156268977,0.4579483976472999,NA,NA,NA,NA,0.49396754037378066,0.5324193659706473,0.22806021482220895,0.4364748312253386,NA,NA,NA,NA
144,E1,E1.5,5,1,S1,34,TrialList8,bad,actress,movie,Attributive,actress{-}bad9,Medium,movie9,27810,actress{-}communicate9,19373,0,actress,communicate,0,1,criticize,critisized9,20229,1,actress{-}bad9,20448,na,,0,0,,0.0,0.43988575827573817,0.544641365973613,0.6547974924307746,0.703954620480389,0.519682792142359,0.43913629535700127,0.5667514923039411,0.5740706962039119,0.24005194213866987,0.4427321278170855,0.48961559974322455,0.5920289986375532,0.44271743375217243,0.215888271516252,0.41820628611414934,0.4411581137447891,0.05962907737309786,0.2025635393010602,0.7313385629933823,0.7280153709540619,0.21297120756701993,0.024216676871651743,0.11374846594080412,0.09897107773578029
145,E1,E1.5,5,1,S1,36,TrialList8,communicate,cooking,show,Coordinate,communicate{-}cooking9,Hard,show9,32486,communicate{-}bow9,16694,0,communicate,bow,1,0,food,food9,9994,0,bow{-}vegetable9,26357,tv,tv9,12950,0,actress{-}bow9,18219.0,0.7042828665419428,0.6708202386362129,0.5764317580039351,0.6774645125120143,0.7224216358626578,0.825241944106591,0.8360099004603984,0.8365995627648158,0.16776406192920068,0.23531745743458532,0.31662184142159056,0.36115927134086645,0.24899185615830344,0.5781483496285694,0.5412358860950415,0.5341575993016825,0.017125657072758482,0.2392277367418547,0.04126440230617878,0.20599634026288638,0.02961397230249707,0.7420394121400222,0.5044147044635442,0.42786336994502583
146,E1,E1.5,5,1,S1,35,TrialList8,breeze,bubble,air,Attributive,breeze{-}bubble9,Easy,air9,9067,breeze{-}bubble9,17779,1,breeze,bubble,1,1,na,,0,0,,0,na,,0,0,,0.0,0.770239211740487,0.8104064027854466,0.7245419308656235,0.8137338218470078,NA,NA,NA,NA,0.21730974411248194,0.36368608541583924,0.34074862001242767,0.45146615477577967,NA,NA,NA,NA,0.23135433877764755,0.5198327258108428,0.40848464513607297,0.5936686009122462,NA,NA,NA,NA
147,E1,E1.5,5,1,S1,39,TrialList9,lunch,almond,health,Hierarchical,almond{-}lunch9,Medium,healthy9,12759,almond{-}soap9,21293,0,almond,soap,0,1,food,food9,5896,0,almond{-}drink9,19360,eat,eat9,3312,0,lunch{-}almond9,21175.0,0.5485966371479462,0.5807896767606139,0.4881225097859907,0.603630834289396,0.7674838170013165,0.6606283921786305,0.8070949145445829,0.8607344931981238,0.1137609627794085,0.25323864378741057,-0.002888521579896164,0.16774007834804927,0.4245527162506235,0.18792561492043502,0.4103739127237287,0.5765578601291684,0.21260010022496523,0.15156612794328006,0.1818752813526091,0.2154718026634337,0.7934501401194639,0.36294411133221716,0.6985696690151261,0.7048005411660473
148,E1,E1.5,5,1,S1,38,TrialList9,bat,bounce,fly,Attributive,bat{-}bounce9,Easy,fly9,14201,bat{-}bounce9,24124,1,bat,bounce,1,1,na,,0,0,,0,na,,0,0,,0.0,0.7712406228046738,0.7645008092207272,0.7677246163784324,0.81406891623285,NA,NA,NA,NA,0.3306467058027297,0.3554425139151123,0.3353440979786322,0.42344551063356595,NA,NA,NA,NA,0.42837009898396583,0.4340801823286702,0.15759931315462228,0.33787308047487086,NA,NA,NA,NA
149,E1,E1.5,5,1,S1,40,TrialList9,toes,Dracula,claw,Attributive,Dracula{-}toes9,Hard,claws9,20066,Dracula{-}toes9,30434,1,Dracula,toes,1,1,na,,0,0,,0,na,,0,0,,0.0,0.49450218052063977,0.6180888321252764,0.7637478175306872,0.7980220672859742,NA,NA,NA,NA,-0.08339683212448401,0.04590010474183914,0.17609091616008077,0.1639569131170866,NA,NA,NA,NA,0.06788867481809979,0.346979588933759,0.3848941014823959,0.5012911823190734,NA,NA,NA,NA
150,E1,E1.6,6,1,S1,7,TrialList1,giggle,abnormal,snort,Coordinate,abnormal{-}giggle9,Medium,snorting9,12968,angry{-}giggle9,78658,0,angry,giggle,1,0,tear,tearing9,31400,0,angry{-}giggle9,55314,nervous,nervous9,85196,1,abnormal{-}giggle9,25546.0,0.6141666973874521,0.7941358210741201,0.6818903026803836,0.8186982849181802,0.7246423448993429,0.7969517389083025,0.8483676249705362,0.8313291388011259,0.14924343674251184,0.30514072543871207,0.1005376640570863,0.2675844520533168,0.12260392654002583,0.1729556333147596,0.19495033773170323,0.1585631560502785,0.02089786760681145,0.5887552509118082,0.02008273816936723,0.4123720012084302,0.11629816748166577,0.025429201014773306,0.09697713376646833,0.20186597199182732
151,E1,E1.6,6,1,S1,8,TrialList1,void,couch,stare,Attributive,couch{-}void9,Hard,stare9,64281,depth{-}void9,15803,0,depth,void,1,0,watch,watch9,16313,0,adore{-}void9,21344,relax,relax9,19161,1,couch{-}void9,36646.0,0.5661940743724609,0.59484943749901,0.5557768402957322,0.6502451260543917,0.5866533035395732,0.5484321909391362,0.6414616520815413,0.7779655121575444,0.050816349010013306,0.22350856697511023,0.3304862179821616,0.38214419641251984,0.08010232656814287,0.30581083844364865,0.26620192194342207,0.3399443627418033,0.01901799621821787,0.14765965731364972,0.046133618608142135,0.13653822272758176,0.04698463727628266,0.08022137664359996,0.08883805565713998,0.44594810004416185
152,E1,E1.6,6,1,S1,6,TrialList1,exam,algebra,equation,Attributive,algebra{-}exam9,Easy,equation9,27753,algebra{-}exam9,9391,1,algebra,exam,1,1,na,,0,0,,0,na,,0,0,,0.0,0.5769354408873905,0.6870312081486214,0.6333216366994935,0.7445610611973611,NA,NA,NA,NA,0.23237704169170825,0.11803266464116757,0.3978564287206834,0.3286015107099307,NA,NA,NA,NA,0.25409660586148175,0.24993576091328507,0.9121434057565412,0.8015282814142638,NA,NA,NA,NA
153,E1,E1.6,6,1,S1,42,TrialList10,pendulum,dusk,time,Attributive,dusk{-}pendulum9,Hard,time9,2206,action{-}pendulum9,41337,0,action,pendulum,1,0,clock,clock9,49986,0,hand{-}pendulum9,11368,sunset,sunset9,21608,1,dusk{-}pendulum9,89537.0,0.6975656423817038,0.7289191235309136,0.7861761454665865,0.8225261921748739,0.7415423090160329,0.7643989053685006,0.8173978418732993,0.8515128332826829,0.040764861847726874,0.2107216939185682,0.2021173111642406,0.286147142878973,0.45211455631493924,0.1185215113806346,0.39551949883395143,0.492288238620185,-0.0022915379047869777,0.21077135787667656,0.2474092263601645,0.3193345966191501,0.29793919823888293,0.2544286490189134,0.39199542468922643,0.5853509201993322
154,E1,E1.6,6,1,S1,44,TrialList10,tourist,comedy,laugh,Argument,comedy{-}tourist9,Medium,laugh9,15376,action{-}comedy9,18244,0,action,comedy,0,1,happy,happy9,3162,0,comedy{-}hard9,12303,tour,tour9,23681,1,comedy{-}tourist9,10146.0,0.646508680144063,0.7019121779964307,0.6955659054168718,0.7700922376705516,0.6297150146353523,0.6115572956697164,0.6839963758841223,0.7542369063068001,0.15384850085872914,0.11416440140574347,0.41908112281755217,0.351024813739343,0.19954708867226734,0.3849645536847459,0.3847722725068343,0.4889802678943833,0.04427765460194233,0.047017981729868374,0.8332308489685213,0.5930713653201385,0.10022807357543251,0.386780704870045,0.3311043408040478,0.5011914295784029
155,E1,E1.6,6,1,S1,43,TrialList10,tea,bean,coffee,Coordinate,bean{-}tea9,Easy,coffee9,7054,bean{-}tea9,6416,1,bean,tea,1,1,na,,0,0,,0,na,,0,0,,0.0,0.8084679157212914,0.8757904911256337,0.7573005688550953,0.8569051152703231,NA,NA,NA,NA,0.4328598411884097,0.7377339609218128,0.5866473672862982,0.7823411889648689,NA,NA,NA,NA,0.3260674845999034,0.8126744714101315,0.36400138958133077,0.680293086013009,NA,NA,NA,NA
156,E1,E1.6,6,1,S1,12,TrialList2,school,stop,cross,Attributive,school{-}stop9,Medium,crossing9,17893,brake{-}school9,30628,0,brake,school,1,0,bus,bus9,2610,1,school{-}stop9,17405,na,,0,0,,0.0,0.5892210126765406,0.627175501269589,0.5964332154114217,0.6855805701166696,0.6581602073880888,0.6558096425285498,0.7368412439754848,0.770496893112799,0.30478406256375634,0.2716405828336004,0.4285211843263237,0.4334251164408288,0.3188292804186146,0.518264216219509,0.5181907430124252,0.5192985967812274,0.13428977182087065,0.13918557126948083,0.21399219512096535,0.23796674548906305,0.14359497491565854,0.25615416596097584,0.27087001063238314,0.32908037199917106
157,E1,E1.6,6,1,S1,10,TrialList2,beginning,brake,race,Attributive,beginning{-}brake9,Hard,race9,40421,beginning{-}stop9,13727,0,beginning,stop,1,0,slow,slow9,49920,0,brake{-}perform9,31095,start,start9,59281,1,beginning{-}brake9,13322.0,0.708221608592075,0.49733570326263754,0.5108831595130682,0.5451823025207455,0.7624659570436318,0.7345796701163128,0.8103443207776148,0.7912481270474173,0.14813935056624616,0.3454323194922926,0.21389834299910704,0.369110441494922,0.4304932434193174,0.3591771950056797,0.5211150095001277,0.5061906157408853,0.11965930100489652,0.19142526900345092,0.2909678423939588,0.31840328080711755,0.04717548291843321,0.4561743226020166,0.32123401350276803,0.38202983323515727
158,E1,E1.6,6,1,S1,11,TrialList2,birds,aircraft,sky,Locative,aircraft{-}birds9,Easy,sky9,5726,aircraft{-}birds9,15181,1,aircraft,birds,1,1,na,,0,0,,0,na,,0,0,,0.0,0.7742629947138543,0.5968083386433659,0.580420830136827,0.6247967581465533,NA,NA,NA,NA,0.11067645587780484,0.25609455031645756,0.30013857691263446,0.37320552988392275,NA,NA,NA,NA,0.3324465763084191,0.434764813045577,0.5203665689918163,0.5897618024438901,NA,NA,NA,NA
159,E1,E1.6,6,1,S1,15,TrialList3,famine,calorie,food,Hierarchical,calorie{-}famine9,Medium,food9,16901,calorie{-}famine9,8341,1,calorie,famine,1,1,na,,0,0,,0,na,,0,0,,0.0,0.6629580954407065,0.7454419575730311,0.7254245837545157,0.8063233536783713,NA,NA,NA,NA,0.034736565670402286,0.3062069689374608,0.3661151494801028,0.4673556552775243,NA,NA,NA,NA,0.3891058748847751,0.41351817344303665,0.5979939442379274,0.5884507353346573,NA,NA,NA,NA
160,E1,E1.6,6,1,S1,14,TrialList3,circle,dance,celebration,Temporal,circle{-}dance9,Easy,celebration9,44661,circle{-}dance9,28903,1,circle,dance,1,1,na,,0,0,,0,na,,0,0,,0.0,0.5281395099082671,0.8122300787598453,0.592465214651015,0.8087688559698352,NA,NA,NA,NA,0.3398754240509272,0.2658743541880151,0.4513488916694961,0.43813419680782495,NA,NA,NA,NA,0.24137403540261748,0.07058812266651981,0.36392283792516356,0.2555731565114796,NA,NA,NA,NA
161,E1,E1.6,6,1,S1,16,TrialList3,hundred,economy,price,Attributive,economy{-}hundred9,Hard,price9,12111,economy{-}hundred9,13878,1,economy,hundred,1,1,na,,0,0,,0,na,,0,0,,0.0,0.48419122805544745,0.65027960962303,0.6366680829156507,0.7468680317024269,NA,NA,NA,NA,0.23288428386025095,0.3187708973054997,0.46328311617952966,0.498035834368701,NA,NA,NA,NA,0.16097609250010425,0.2746004889614877,0.6666246657306365,0.5602780888642087,NA,NA,NA,NA
162,E1,E1.6,6,1,S1,18,TrialList4,corpse,fight,zombie,Coordinate,corpse{-}fight9,Hard,zombie9,10360,corpse{-}fangs9,25812,0,corpse,fangs,1,0,apocalypse,apocolypse9,47089,0,corpse{-}reality9,13715,survival,survival9,19309,0,corpse{-}island9,9068.0,0.6792666706282837,0.7857445347343215,0.6814077717926581,0.801680731550159,0.7243795768001041,0.6988422575654942,0.776849852866939,0.8327002107974806,0.20775701182287198,0.4345872345595472,0.33161646273086975,0.49299153379661687,0.18418280655101393,0.2060080698968949,0.25105699658834757,0.42354815760949416,0.06299379523669957,0.7049673985916746,0.10454593267472934,0.6249537512641404,0.3055179536623821,0.16520520685342777,0.33599948297495463,0.4106123375148527
163,E1,E1.6,6,1,S1,19,TrialList4,graph,copy,Microsoft,Attributive,copy{-}graph9,Medium,microsoft9,15542,extension{-}graph9,31579,0,extension,graph,1,0,computer,computer9,42226,1,copy{-}graph9,7229,na,,0,0,,0.0,0.4988516338043415,0.5191290252363204,0.6352923447278883,0.6647585338598663,0.6315685735803533,0.6387504896417172,0.7334821718526999,0.775599895885141,0.12270590933688585,0.09918471786109362,0.28377859847717835,0.25556959091283327,0.2627200469516776,0.35002520265060677,0.4089139740932952,0.5350297406669507,0.13552496384812995,0.22004077514805842,0.1795406597147483,0.2569178505154375,0.35078122520602717,0.21107559049543523,0.35128102771959413,0.6581742853109757
164,E1,E1.6,6,1,S1,20,TrialList4,kitchen,egg,cook,Argument,egg{-}kitchen9,Easy,cooking9,7083,egg{-}kitchen9,5579,1,egg,kitchen,1,1,na,,0,0,,0,na,,0,0,,0.0,0.7445174656024308,0.7804845042688769,0.77814277143255,0.8341979135728413,NA,NA,NA,NA,0.22233345320223408,0.5331150937326825,0.4550595525628286,0.6320098708368116,NA,NA,NA,NA,0.4430012273526396,0.809958925008679,0.6274359334434771,0.8510856651026565,NA,NA,NA,NA
165,E1,E1.6,6,1,S1,22,TrialList5,homeless,apartment,live,Locative,apartment{-}homeless9,Easy,live9,18947,child{-}teenager9,21808,0,child,teenager,0,0,shelter,shelter9,3560,1,apartment{-}homeless9,15141,na,,0,0,,0.0,0.7206288784844671,0.6291287312922769,0.6533610872081322,0.691636643997589,0.7253305650035774,0.823161927542738,0.8360116141306494,0.8481315993675372,0.3379569615595205,0.3507379587285324,0.43364193644296367,0.4795019552388142,0.6025953231976633,0.28892084881932534,0.544995806990412,0.5321381125311916,0.21921945464091797,0.1411080459410743,0.536162947440772,0.4317200690504639,0.37151573919865577,0.6214895398474516,0.6346391659040034,0.6485863120437247
166,E1,E1.6,6,1,S1,23,TrialList5,near,astronaut,moon,Locative,astronaut{-}near9,Hard,moon9,9392,astronaut{-}sky9,13051,0,astronaut,sky,0,1,space,space9,30950,1,astronaut{-}near9,49396,na,,0,0,,0.0,0.684976547481126,0.6493236378304023,0.651749966518776,0.7087457486084582,0.7267659095840446,0.7255141680793586,0.7911123790019564,0.8218887294774113,0.11814379866492664,0.26401901610138667,0.44214495280553767,0.47221711224498786,0.30030911903527335,0.46529570587207814,0.5119656569429226,0.5139105719958965,0.0696041693545516,0.058636181475050675,0.7551707913853559,0.6174729256577824,0.24395402220967788,0.8097486882719422,0.7678004969158394,0.8265405946956983
167,E1,E1.6,6,1,S1,24,TrialList5,onion,cigarette,burn,Attributive,cigarette{-}onion9,Medium,burn9,30362,cigarette{-}onion9,27359,1,cigarette,onion,1,1,na,,0,0,,0,na,,0,0,,0.0,0.703224360177519,0.7835863835437812,0.6997833882802823,0.8046144447700339,NA,NA,NA,NA,0.17143134249509273,0.14495361960134778,0.28527650788924697,0.28107835200912323,NA,NA,NA,NA,0.09543047099466861,0.16069864112674126,0.4454151014280161,0.43422781398225696,NA,NA,NA,NA
168,E1,E1.6,6,1,S1,28,TrialList6,war,quiet,battlefield,Locative,quiet{-}war9,Medium,battlefield9,66015,welfare{-}war9,27708,0,welfare,war,1,0,infiltrate,infiltrate9,39862,0,conquer{-}war9,17599,passive,passive9,84532,0,assist{-}war9,30796.0,0.6215020998849403,0.6702712272022754,0.739498205289587,0.7833480910292878,NA,NA,NA,NA,0.25201139624598945,0.45507262724550546,0.1873835626832404,0.4059984515683128,NA,NA,NA,NA,0.09187378393041379,0.840636916710306,0.0790428619616399,0.5799346592450493,NA,NA,NA,NA
169,E1,E1.6,6,1,S1,26,TrialList6,definition,assist,dictionary,Attributive,assist{-}definition9,Hard,diction{CAPSLOCK}{CAPSLOCK}ary9,11061,definition{-}quiet9,23406,0,definition,quiet,1,0,question,question9,28093,1,assist{-}definition9,9252,na,,0,0,,0.0,0.2630124124511132,0.6497493898702605,0.3472755814283116,0.6374398567992523,0.7542519032301085,0.2718975928773124,0.6621119931954338,0.6920106260503326,0.16015390872195268,0.3957531077506511,0.12371923623378989,0.3410276818660446,0.4456541135861678,0.3206601958935542,0.5030766203472085,0.4501730202643498,0.04719898003212997,0.8467850845166273,0.037641665362488586,0.6165800873630919,0.3331453314044328,0.10883342506365035,0.30690740325916965,0.3464271901675229
170,E1,E1.6,6,1,S1,27,TrialList6,pants,collar,clothes,Hierarchical,collar{-}pants9,Easy,clothing9,22813,collar{-}pants9,13008,1,collar,pants,1,1,na,,0,0,,0,na,,0,0,,0.0,0.8751625945892642,0.8058118971640434,0.7045015447290744,0.7782112344605081,NA,NA,NA,NA,0.45526256232442197,0.4667149582936174,0.342721081784083,0.47445699875817415,NA,NA,NA,NA,0.4863225308658845,0.8498533117630436,0.5345900110398364,0.8083310668575073,NA,NA,NA,NA
171,E1,E1.6,6,1,S1,30,TrialList7,flat,alike,paper,Attributive,alike{-}flat9,Hard,paper9,39982,grocery{-}receipt9,19243,0,grocery,receipt,0,0,Mahjong,mahjong9,22392,0,competition{-}receipt9,37835,xerox,xerox9,18625,0,competition{-}service9,26210.0,0.6575328408388152,0.6269028168530063,0.6173891148714031,0.68348314724059,NA,NA,NA,NA,0.16525538450600563,0.26108069161554126,0.06941122863804128,0.2164887241485386,NA,NA,NA,NA,0.10847299813008726,0.22579359983798242,0.035384628751076286,0.12081380987449175,NA,NA,NA,NA
172,E1,E1.6,6,1,S1,32,TrialList7,perjury,adultery,law,Attributive,adultery{-}perjury9,Easy,law9,9111,adultery{-}perjury9,15453,1,adultery,perjury,1,1,na,,0,0,,0,na,,0,0,,0.0,0.5832977551789396,0.5995870498964598,0.5305619928045328,0.6325394914596659,NA,NA,NA,NA,0.4050039450875955,0.18550059504772087,0.2832804583447046,0.27965093675582464,NA,NA,NA,NA,0.49396754037378066,0.46523891589904287,0.14375471660402206,0.34864980959028424,NA,NA,NA,NA
173,E1,E1.6,6,1,S1,31,TrialList7,heavy,feather,oxymoron,Hierarchical,feather{-}heavy9,Medium,oxymoron9,18597,heavy{-}feather9,18832,1,heavy,feather,1,1,na,alphabetical9,41933,0,feather{-}heavy9,15988,na,,0,0,,0.0,0.7400216143269848,NA,NA,NA,NA,NA,NA,NA,0.18189630026155323,NA,NA,NA,NA,NA,NA,NA,0.09667100939457307,NA,NA,NA,NA,NA,NA,NA
174,E1,E1.6,6,1,S1,35,TrialList8,breeze,bubble,float,Attributive,breeze{-}bubble9,Easy,float9,36693,bubble{-}trash9,31596,0,bubble,trash,0,1,air,air9,18908,1,bubble{-}breeze9,10724,na,alphabetical9,11013,0,breeze{-}bubble9,7960.0,0.770239211740487,0.740400809585728,0.7926312517787758,0.8158227282202509,0.8104064027854466,0.7245419308656235,0.8137338218470078,0.8114292569436089,0.21730974411248194,0.24279497235243686,0.4161169400855398,0.4222909809152453,0.36368608541583924,0.34074862001242767,0.45146615477577967,0.4640603430063336,0.23135433877764755,0.44451512828982875,0.46286672794985706,0.5776327330502948,0.5198327258108428,0.40848464513607297,0.5936686009122462,0.6376891229636887
175,E1,E1.6,6,1,S1,34,TrialList8,bad,actress,movie,Attributive,actress{-}bad9,Medium,movie9,51848,actress{-}bad9,30434,1,actress,bad,1,1,na,,0,0,,0,na,,0,0,,0.0,0.43988575827573817,0.544641365973613,0.6547974924307746,0.703954620480389,NA,NA,NA,NA,0.24005194213866987,0.4427321278170855,0.48961559974322455,0.5920289986375532,NA,NA,NA,NA,0.05962907737309786,0.2025635393010602,0.7313385629933823,0.7280153709540619,NA,NA,NA,NA
176,E1,E1.6,6,1,S1,36,TrialList8,communicate,cooking,recipe,Attributive,communicate{-}cooking9,Hard,recipe9,51075,communicate{-}cooking9,8317,1,communicate,cooking,1,1,na,,0,0,,0,na,,0,0,,0.0,0.7042828665419428,0.7587262427694165,0.7423707725299826,0.8132982993085949,NA,NA,NA,NA,0.16776406192920068,0.11112377343503654,0.5959380861332132,0.4626631030259333,NA,NA,NA,NA,0.017125657072758482,0.044643423238244107,0.8389896207994303,0.5786773140296575,NA,NA,NA,NA
177,E1,E1.6,6,1,S1,39,TrialList9,lunch,almond,food,Hierarchical,almond{-}lunch9,Medium,food9,15737,{LEFTARROW}{LEFTARROW}{LEFTARROW}almond{-}lunch9,19703,0,almond,lunch,1,1,again,again9,14267,1,almond{-}lunch9,4835,na,,0,0,,0.0,0.5485966371479462,0.7674838170013165,0.6606283921786305,0.8070949145445829,0.4682862778994903,0.48729435804426036,0.5433463287395918,0.5496249948986824,0.1137609627794085,0.4245527162506235,0.18792561492043502,0.4103739127237287,-0.004352649061069913,-0.03539749881060428,-0.026633468814470485,0.005500831689181029,0.21260010022496523,0.7934501401194639,0.36294411133221716,0.6985696690151261,0.106760759498984,0.022617683526325094,0.0748854852812163,0.0693968713303631
178,E1,E1.6,6,1,S1,40,TrialList9,toes,Dracula,claw,Attributive,Dracula{-}toes9,Hard,claws9,24133,bat{-}toes9,25291,0,bat,toes,1,0,claw,claws9,55454,0,bat{-}Dracula9,20217,hang,hang9,14767,0,knob{-}painter9,53851.0,0.49450218052063977,0.6180888321252764,0.7637478175306872,0.7980220672859742,0.6180888321252764,0.7637478175306872,0.7980220672859742,0.918434095693347,-0.08339683212448401,0.04590010474183914,0.17609091616008077,0.1639569131170866,0.04590010474183914,0.17609091616008077,0.1639569131170866,0.6750210221587828,0.06788867481809979,0.346979588933759,0.3848941014823959,0.5012911823190734,0.346979588933759,0.3848941014823959,0.5012911823190734,0.8165451364726255
