,Unnamed: 0,Unnamed: 0.1,Experiment,Subject,participant,Session,Procedure.Block.,Trial,Board,Word1,Word2,Clue1,ClueType,CorrectAnswer,Level,Player1.RESP,Player1.RT,Player2.RESP,Player2.RT,Player2.ACC,P2W1,P2W2,P2A1W1,P2A1W2,Clue2,Player1SecondClue.RESP,Player1SecondClue.RT,Player2SecondAnswer.ACC,Player2SecondAnswer.RESP,Player2SecondAnswer.RT,Clue3,Player1ThirdClue.RESP,Player1ThirdClue.RT,Player2ThirdAnswer.ACC,Player2ThirdAnswer.RESP,Player2ThirdAnswer.RT,w1_length,w1_freq,w1_conc,w2_length,w2_freq,w2_conc,w1w2_length,w1w2_freq,w1w2_conc,clue_length,clue_freq,clue_conc,Attempts,clue2_length,clue2_freq,clue2_conc,glove_w1w2_sim,glove_c1w1_sim,glove_c1w2_sim,glove_c2w1_sim,glove_c2w2_sim,glove_c3w1_sim,glove_c3w2_sim,glove_c1c2_sim,glove_c2c3_sim,glove_c1c3_sim,usf_s_w1w2_sim,usf_s_c1w1_sim,usf_s_c1w2_sim,usf_s_c2w1_sim,usf_s_c2w2_sim,usf_s_c3w1_sim,usf_s_c3w2_sim,usf_s_c1c2_sim,usf_s_c2c3_sim,usf_s_c1c3_sim,usf_ppmi_w1w2_sim,usf_ppmi_c1w1_sim,usf_ppmi_c1w2_sim,usf_ppmi_c2w1_sim,usf_ppmi_c2w2_sim,usf_ppmi_c3w1_sim,usf_ppmi_c3w2_sim,usf_ppmi_c1c2_sim,usf_ppmi_c2c3_sim,usf_ppmi_c1c3_sim,usf_rw_w1w2_sim,usf_rw_c1w1_sim,usf_rw_c1w2_sim,usf_rw_c2w1_sim,usf_rw_c2w2_sim,usf_rw_c3w1_sim,usf_rw_c3w2_sim,usf_rw_c1c2_sim,usf_rw_c2c3_sim,usf_rw_c1c3_sim,swow_rw_w1w2_sim,swow_rw_c1w1_sim,swow_rw_c1w2_sim,swow_rw_c2w1_sim,swow_rw_c2w2_sim,swow_rw_c3w1_sim,swow_rw_c3w2_sim,swow_rw_c1c2_sim,swow_rw_c2c3_sim,swow_rw_c1c3_sim,swow_ppmi_w1w2_sim,swow_ppmi_c1w1_sim,swow_ppmi_c1w2_sim,swow_ppmi_c2w1_sim,swow_ppmi_c2w2_sim,swow_ppmi_c3w1_sim,swow_ppmi_c3w2_sim,swow_ppmi_c1c2_sim,swow_ppmi_c2c3_sim,swow_ppmi_c1c3_sim,swow_s_w1w2_sim,swow_s_c1w1_sim,swow_s_c1w2_sim,swow_s_c2w1_sim,swow_s_c2w2_sim,swow_s_c3w1_sim,swow_s_c3w2_sim,swow_s_c1c2_sim,swow_s_c2c3_sim,swow_s_c1c3_sim
0,0,0,E1,E1.1,1,1,S1,8,TrialList1,void,couch,comfortable,Attributive,couch{-}void9,Hard,comfy9,59842,couch{-}outfit9,32668,0,couch,outfit,0,1,disappear,dissapear9,59984,1,couch{-}void9,16733,na,,0,0,,0.0,4,2.322,2.62,5,3.0789999999999997,4.71,4.5,2.7005,3.665,11.0,3.3819999999999997,2.33,2,9.0,3.029,2.86,0.06154606635450122,0.3480946713952886,0.3480946713952886,0.21697734215542253,0.13779057678372686,NA,NA,0.17340273524925798,NA,NA,-0.01695988452239927,0.8387885651369363,0.8387885651369363,NA,NA,NA,NA,NA,NA,NA,-0.007320074254923092,0.7785305787194364,0.7785305787194364,NA,NA,NA,NA,NA,NA,NA,0.025040346553151793,0.7727939131531187,0.7727939131531187,NA,NA,NA,NA,NA,NA,NA,0.019018169566455523,0.8553130828364883,0.8553130828364883,0.33488225640878155,0.03971420736653675,NA,NA,0.023742144763777895,NA,NA,0.01178667862088767,0.8004830391998063,0.8004830391998063,0.20925954655487922,0.06492171126211432,NA,NA,0.026779697657186352,NA,NA,0.004049342820268476,0.7798696692925782,0.7798696692925782,0.0687533653532274,0.05271073604202614,NA,NA,0.023851277974633267,NA,NA
1,1,1,E1,E1.1,1,1,S1,7,TrialList1,giggle,abnormal,funny,Attributive,abnormal{-}giggle9,Medium,funny9,21075,adore{-}giggle9,53394,0,adore,giggle,1,0,weird,weird9,8219,1,abnormal{-}giggle9,29701,na,,0,0,,0.0,6,1.944,3.72,8,2.173,2.14,7.0,2.0585,2.93,5.0,4.046,2.5,2,5.0,3.712,1.59,0.1110432235928066,0.10559786966358664,0.10559786966358664,0.2159075900366495,0.25561019915459715,NA,NA,0.5841324507788074,NA,NA,-0.011942076206493235,0.018393815704975336,0.018393815704975336,0.011598954283799201,0.8901255058408148,NA,NA,0.06652582648917571,NA,NA,-0.00654498518437574,0.03833247738769452,0.03833247738769452,0.09587460206078491,0.9261134173340559,NA,NA,0.13468717824347665,NA,NA,0.08598495913270976,0.19517417088922495,0.19517417088922495,0.22819493736890095,0.9302593339415967,NA,NA,0.3302786183852091,NA,NA,0.020898145861131034,0.31265256249875684,0.31265256249875684,0.20312261075416993,0.889740896532707,NA,NA,0.5094967687140121,NA,NA,-0.01842087042047913,0.25311613621784756,0.25311613621784756,0.13434312127851034,0.894042988999934,NA,NA,0.43805202773361107,NA,NA,-0.009822552747094093,0.09406957147261785,0.09406957147261785,0.04068871532715013,0.963287379726097,NA,NA,0.1544371152019698,NA,NA
2,2,2,E1,E1.1,1,1,S1,6,TrialList1,exam,algebra,math,Hierarchical,algebra{-}exam9,Easy,math9,6224,algebra{-}exam9,26977,1,algebra,exam,1,1,na,,0,0,,0,na,,0,0,,0.0,4,2.8360000000000003,4.48,7,1.959,3.14,5.5,2.3975,3.81,4.0,2.923,3.15,1,,,,0.294723332823305,0.3953460176553689,0.3953460176553689,NA,NA,NA,NA,NA,NA,NA,-0.014297108294813343,0.99665617842181,0.99665617842181,NA,NA,NA,NA,NA,NA,NA,0.29918502428244254,0.8671074913860983,0.8671074913860983,NA,NA,NA,NA,NA,NA,NA,0.3960302023261757,0.9195650037931234,0.9195650037931234,NA,NA,NA,NA,NA,NA,NA,0.2540965051611994,0.9590594575256929,0.9590594575256929,NA,NA,NA,NA,NA,NA,NA,0.2033902588087303,0.9364708672516164,0.9364708672516164,NA,NA,NA,NA,NA,NA,NA,0.1481970968234444,0.9877439806351994,0.9877439806351994,NA,NA,NA,NA,NA,NA,NA
3,3,3,E1,E1.1,1,1,S1,42,TrialList10,tea,bean,time,Idiosyncratic,bean{-}tea9,Easy,time9,12297,dusk{-}hand9,58343,0,dusk,hand,0,0,swing,swinging9,89655,0,hand{-}pendulum9,8843,sunset,sunset9,34519,0,dusk{-}pendulum9,3735.0,3,3.4760000000000004,4.69,4,2.544,5.0,3.5,3.01,4.845,4.0,5.0,3.07,4,5.0,3.123,4.54,0.3237202899988505,0.04308414581275988,0.04308414581275988,0.14632580024356545,0.07425209125179,0.15773658456836415,0.01125276122020713,0.24142687471871382,0.09948881729044434,0.22226929486284008,0.07121897254364551,0.003976472515284657,0.003976472515284657,0.0038762653931551094,0.10992735926911745,0.0014814160698840562,-0.0012054911647851885,0.20617013643502013,-0.006602352179986282,0.012044645129254072,0.2255829418056523,0.029697717294281722,0.029697717294281722,0.018858593187682682,0.09546156368042424,0.0010814859373687868,0.006902936684978878,0.05124363892700701,0.04249974232575238,0.0691553566040698,0.4456816207686016,0.060592910848968895,0.060592910848968895,0.034579756659168015,0.20534436334549588,0.05650794879703824,0.07801005636132496,0.10436012101385572,0.07645122015089656,0.32163653089943334,0.32606791132605994,0.05677553338277763,0.05677553338277763,0.07787547546139506,0.043379889675858485,0.2312378324026244,0.07865837339042259,0.15376011821436952,0.08901808437595682,0.21536855011338307,0.20753849572287286,0.07179095717188944,0.07179095717188944,0.11575145531783593,0.08602615956881499,0.23388582880874054,0.01705078529748727,0.18479419577571532,0.12234452978481536,0.22553925497921812,0.2204120614447529,0.02425848608305481,0.02425848608305481,0.07902105453440433,0.039636377768453634,0.14700645853982708,0.03532534252322317,0.21832202904519904,0.06904432515448355,0.07231461856852284
4,4,4,E1,E1.1,1,1,S1,44,TrialList10,tourist,comedy,fun,Attributive,comedy{-}tourist9,Medium,fun9,34427,comedy{-}tourist9,35365,1,comedy,tourist,1,1,na,,0,0,,0,na,,0,0,,0.0,7,2.377,4.59,6,2.78,3.1,6.5,2.5785,3.845,3.0,4.08,1.97,1,,,,0.07477245966062318,0.45081417545667835,0.45081417545667835,NA,NA,NA,NA,NA,NA,NA,0.15795762466526297,0.23317772736203346,0.23317772736203346,NA,NA,NA,NA,NA,NA,NA,0.08144181105609327,0.32932360779193337,0.32932360779193337,NA,NA,NA,NA,NA,NA,NA,0.17568418692190646,0.6005024947210907,0.6005024947210907,NA,NA,NA,NA,NA,NA,NA,0.044277614695844125,0.6218585102503159,0.6218585102503159,NA,NA,NA,NA,NA,NA,NA,0.043585534599366316,0.5430403407405869,0.5430403407405869,NA,NA,NA,NA,NA,NA,NA,0.02299368319368067,0.47049068953150797,0.47049068953150797,NA,NA,NA,NA,NA,NA,NA
5,5,5,E1,E1.1,1,1,S1,43,TrialList10,pendulum,dusk,right,Idiosyncratic,dusk{-}pendulum9,Hard,right9,8756,9,5513,0,,,0,0,na,9,2156,0,9,3449,na,9,1206,0,9,1009.0,8,1.4469999999999998,4.69,4,1.7919999999999998,4.24,6.0,1.6195,4.465,5.0,5.311,3.47,4,,,,0.1101165376971549,-0.00897664656489039,-0.00897664656489039,NA,NA,NA,NA,NA,NA,NA,0.020707103592874865,0.00572264601295791,0.00572264601295791,NA,NA,NA,NA,NA,NA,NA,-0.003386328682679851,0.006860275002522398,0.006860275002522398,NA,NA,NA,NA,NA,NA,NA,-0.0054514599394916985,0.0021963002817011468,0.0021963002817011468,NA,NA,NA,NA,NA,NA,NA,-0.0022916221934277115,0.06390607520018055,0.06390607520018055,NA,NA,NA,NA,NA,NA,NA,0.036024428892065696,0.04759351069054507,0.04759351069054507,NA,NA,NA,NA,NA,NA,NA,0.05007930353723866,0.01151861871425619,0.01151861871425619,NA,NA,NA,NA,NA,NA,NA
6,6,6,E1,E1.1,1,1,S1,10,TrialList2,beginning,brake,start,Coordinate,beginning{-}brake9,Hard,start9,129626,beginning{-}gas9,67550,0,beginning,gas,1,0,stop,stop9,78270,0,beginning{-}stopp9,7217,car,car9,16919,0,gas{-}brake9,10766.0,9,3.508,2.5,5,2.4859999999999998,4.44,7.0,2.997,3.47,5.0,4.239,2.71,4,4.0,4.557,3.68,0.04710721895062209,0.12671824325191428,0.12671824325191428,0.3776638692434531,0.2233514860308652,0.2286989782893072,0.31014982223273235,0.5460899127744716,0.3762722577514612,0.2986635706660672,0.10916630870839883,0.4017485349088681,0.4017485349088681,0.18897875641029094,0.8468402510311643,0.00533908000904848,0.5679763288837542,0.5218022114536326,0.07071389740423539,0.0399880625580713,0.09612179298057477,0.33190594606274715,0.33190594606274715,0.38003697572738115,0.5521265380540585,0.06169047832212404,0.4996991890989737,0.7485058880820606,0.193356958460691,0.1344033180738009,0.11601867687603173,0.4142024033227839,0.4142024033227839,0.4137708985425885,0.5062262442212131,0.11330477820962792,0.6199236644565078,0.859845184455452,0.36907484859404427,0.3071557381954644,0.11965929460068203,0.23436116410296148,0.23436116410296148,0.24531851498734403,0.5951432834421678,0.07043571118022429,0.674245331344431,0.34236033059473847,0.24624848564904578,0.18086842203775988,0.10444240443630548,0.19361728153702762,0.19361728153702762,0.2082017697413916,0.5641615791830851,0.06984966095009781,0.6004853912861682,0.2898392919199513,0.23288796372861575,0.16306494010911832,0.08194186374098023,0.08696759910910146,0.08696759910910146,0.11633025754516091,0.7878888732769929,0.021776819387105295,0.6751626298428957,0.11567006428765092,0.10233497091654287,0.03404158936818524
7,7,7,E1,E1.1,1,1,S1,11,TrialList2,birds,aircraft,fly,Attributive,aircraft{-}birds9,Easy,fly9,2834,aircraft{-}birds9,10780,1,aircraft,birds,1,1,na,,0,0,,0,na,,0,0,,0.0,5,3.1210000000000004,,8,2.6839999999999997,4.4,6.5,2.9025,4.4,3.0,3.637,4.64,1,,,,0.24283443351233158,0.48735597189530244,0.48735597189530244,NA,NA,NA,NA,NA,NA,NA,0.544180951939714,0.6570926693662666,0.6570926693662666,NA,NA,NA,NA,NA,NA,NA,0.06828938527906625,0.6420283322111356,0.6420283322111356,NA,NA,NA,NA,NA,NA,NA,0.12355777933393064,0.5771188710349817,0.5771188710349817,NA,NA,NA,NA,NA,NA,NA,0.3324465196358649,0.7005747812569145,0.7005747812569145,NA,NA,NA,NA,NA,NA,NA,0.2647665220475719,0.6960898484980865,0.6960898484980865,NA,NA,NA,NA,NA,NA,NA,0.44920937688962104,0.7482314065680119,0.7482314065680119,NA,NA,NA,NA,NA,NA,NA
8,8,8,E1,E1.1,1,1,S1,12,TrialList2,school,stop,cancel,Coordinate,school{-}stop9,Medium,cancel9,39485,school{-}stop9,45532,1,school,stop,1,1,na,,0,0,,0,na,,0,0,,0.0,6,4.23,4.79,4,4.5569999999999995,3.68,5.0,4.3935,4.235,6.0,2.97,2.41,1,,,,0.2040524961806478,0.3328990300140142,0.3328990300140142,NA,NA,NA,NA,NA,NA,NA,0.005245203754469574,NA,NA,NA,NA,NA,NA,NA,NA,NA,0.02249429955419202,NA,NA,NA,NA,NA,NA,NA,NA,NA,0.16099766073775457,NA,NA,NA,NA,NA,NA,NA,NA,NA,0.13428933996019032,0.535239906494759,0.535239906494759,NA,NA,NA,NA,NA,NA,NA,0.14586464575726366,0.4998915444644978,0.4998915444644978,NA,NA,NA,NA,NA,NA,NA,0.03612845499674988,0.799453137068741,0.799453137068741,NA,NA,NA,NA,NA,NA,NA
9,9,9,E1,E1.1,1,1,S1,14,TrialList3,circle,dance,art,Hierarchical,circle{-}dance9,Easy,art9,16486,dance{-}literature9,84052,0,dance,literature,0,1,shape,shapes9,11148,0,circle{-}stripes9,6104,movement,movement9,78752,1,circle{-}dance9,7960.0,6,3.0410000000000004,4.44,5,3.878,4.32,5.5,3.4595,4.38,3.0,3.5580000000000003,4.17,3,5.0,3.188,3.14,0.25112143733364056,0.41668541979264484,0.41668541979264484,0.28442248320834373,0.1686988715428953,0.2337935484938758,0.24916680926025958,0.17393589327757875,0.27359263108995613,0.2662119419743082,0.03250755520566895,0.06267400489598818,0.06267400489598818,0.8363002218508532,0.031428706398862305,0.0026918568050721126,0.36374817182730834,0.13642462813384626,0.08378727667349373,0.027065038210329684,0.09524927718600407,0.15154530847705683,0.15154530847705683,0.8134738402183437,0.08475117261824328,0.03957184074035591,0.4253179939111298,0.1015673910791528,0.09836931254453785,0.04054415348317186,0.18878186089693094,0.2732644710171085,0.2732644710171085,0.7538707798680946,0.19296042988904305,0.18640641800042934,0.5551170309027786,0.24281585688142582,0.2502769558482769,0.1256197362716276,0.24137399218571443,0.19163475567752342,0.19163475567752342,0.7718246216673785,0.12650631388231304,0.1975072097954511,0.5324763377002042,0.28402710501703154,0.13001752680956724,0.10449313884510525,0.23484988405725837,0.20575303359766794,0.20575303359766794,0.7042341196172853,0.12089836249263886,0.21390225417601094,0.5413362652291941,0.2501238678453328,0.1378063980789337,0.13191144359148177,0.06389749936520706,0.07607713130298044,0.07607713130298044,0.7126884216790481,0.019549650819867703,0.05448264127021141,0.562896002844858,0.05209070265922566,0.029759884971759076,0.06376931374872152
10,10,10,E1,E1.1,1,1,S1,15,TrialList3,famine,calorie,food,Hierarchical,calorie{-}famine9,Medium,food{SHIFT}9,76865,calorie{-}famine9,25851,1,calorie,famine,1,1,na,,0,0,,0,na,,0,0,,0.0,6,1.9140000000000001,3.55,7,1.114,3.44,6.5,1.514,3.495,4.0,3.8960000000000004,4.8,1,,,,0.04115799046969559,0.3029011662351544,0.3029011662351544,NA,NA,NA,NA,NA,NA,NA,0.39690568333035214,0.5323205813079563,0.5323205813079563,NA,NA,NA,NA,NA,NA,NA,0.14703531854175256,0.313874486779006,0.313874486779006,NA,NA,NA,NA,NA,NA,NA,0.02614790138716605,0.12105088305975531,0.12105088305975531,NA,NA,NA,NA,NA,NA,NA,0.3891061552649048,0.5979938958119623,0.5979938958119623,NA,NA,NA,NA,NA,NA,NA,0.19778901573013918,0.4685318371286764,0.4685318371286764,NA,NA,NA,NA,NA,NA,NA,0.692817029104818,0.900765342718155,0.900765342718155,NA,NA,NA,NA,NA,NA,NA
11,11,11,E1,E1.1,1,1,S1,16,TrialList3,hundred,economy,money,Hierarchical,economy{-}hundred9,Hard,money9,25253,economy{-}hundred9,17302,1,economy,hundred,1,1,na,,0,0,,0,na,,0,0,,0.0,7,3.6039999999999996,3.2,7,2.4730000000000003,2.57,7.0,3.0385,2.885,5.0,4.513999999999999,4.54,1,,,,0.07293522181313483,0.3367531109640425,0.3367531109640425,NA,NA,NA,NA,NA,NA,NA,0.7661413778949194,0.9970436241541036,0.9970436241541036,NA,NA,NA,NA,NA,NA,NA,0.14300501538634958,0.5412440277318825,0.5412440277318825,NA,NA,NA,NA,NA,NA,NA,0.1045959380963688,0.5151879035708551,0.5151879035708551,NA,NA,NA,NA,NA,NA,NA,0.16097611139001233,0.794766973316496,0.794766973316496,NA,NA,NA,NA,NA,NA,NA,0.10103429317547097,0.6994815491383563,0.6994815491383563,NA,NA,NA,NA,NA,NA,NA,0.4538111147338464,0.9713556733567561,0.9713556733567561,NA,NA,NA,NA,NA,NA,NA
12,12,12,E1,E1.1,1,1,S1,18,TrialList4,corpse,fight,death,Argument,corpse{-}fight9,Hard,death9,9494,corpse{-}garden9,51156,0,corpse,garden,1,0,injury,injury9,4830,1,corpse{-}fight9,20936,na,,0,0,,0.0,6,2.713,4.89,5,4.011,4.2,5.5,3.362,4.545,5.0,4.043,3.73,2,6.0,2.717,4,0.019716625909948826,0.3091886188686884,0.3091886188686884,0.053432353880309646,0.23760726964034662,NA,NA,0.28638682393162074,NA,NA,-0.0021564468163808304,0.03843808355615608,0.03843808355615608,-0.012170651003693855,0.09240155525797777,NA,NA,0.047353724666242214,NA,NA,0.010450123104046805,0.09887866520492872,0.09887866520492872,0.014483195580330288,0.14556398204825516,NA,NA,0.0830523805598764,NA,NA,0.04236206000665965,0.16817204450479262,0.16817204450479262,0.13652100728860472,0.3107873531540355,NA,NA,0.17875688560282998,NA,NA,0.06299388723568344,0.20348886229945395,0.20348886229945395,0.15357885127475313,0.28412090730067363,NA,NA,0.2926037995065488,NA,NA,0.05718467120886639,0.20002990073829896,0.20002990073829896,0.10633579661853909,0.22401560571092827,NA,NA,0.23717414669738457,NA,NA,0.00781793939648534,0.09108433958844853,0.09108433958844853,0.06827379453394611,0.08196853339817367,NA,NA,0.12291772708467663,NA,NA
13,13,13,E1,E1.1,1,1,S1,19,TrialList4,graph,copy,analyze,Attributive,copy{-}graph9,Medium,analyze9,17531,extension{-}graph9,58752,0,extension,graph,1,0,replicate,replicate9,12906,1,copy{-}graph9,5281,na,,0,0,,0.0,5,1.591,4.66,4,3.426,3.9,4.5,2.5085,4.28,7.0,2.22,2.3,2,9.0,1.58,3.33,0.09015091617847037,0.19852685281995242,0.19852685281995242,0.10114248808644688,0.23172706258945852,NA,NA,0.4257423379670585,NA,NA,0.08646645328756741,0.02136988523706984,0.02136988523706984,NA,NA,NA,NA,NA,NA,NA,0.02117011564566318,0.011250133899599057,0.011250133899599057,NA,NA,NA,NA,NA,NA,NA,0.06267822705621051,0.013962775682895057,0.013962775682895057,NA,NA,NA,NA,NA,NA,NA,0.13552450958647766,0.09156519836332133,0.09156519836332133,0.08044412612225182,0.9119766703868496,NA,NA,0.04075715218484888,NA,NA,0.0896045667060783,0.061380440738400655,0.061380440738400655,0.03273893603352562,0.9315192577527369,NA,NA,0.018840617857256547,NA,NA,0.09365716248784373,0.022962437494841836,0.022962437494841836,0.03599538802680868,0.9738841829412923,NA,NA,0.020877101981208956,NA,NA
14,14,14,E1,E1.1,1,1,S1,20,TrialList4,kitchen,egg,cook,Argument,egg{-}kitchen9,Easy,cook9,2686,egg{-}kitchen9,11262,1,egg,kitchen,1,1,na,,0,0,,0,na,,0,0,,0.0,7,3.4739999999999998,4.97,3,3.123,4.97,5.0,3.2985,4.97,4.0,3.366,4.32,1,,,,0.22159717286980696,0.30867429222881404,0.30867429222881404,NA,NA,NA,NA,NA,NA,NA,0.014548312400183283,0.04056058213096814,0.04056058213096814,NA,NA,NA,NA,NA,NA,NA,0.0648936691848857,0.197398081439906,0.197398081439906,NA,NA,NA,NA,NA,NA,NA,0.24645053267682482,0.4672383382081702,0.4672383382081702,NA,NA,NA,NA,NA,NA,NA,0.443001346240698,0.6274360027448017,0.6274360027448017,NA,NA,NA,NA,NA,NA,NA,0.3019565917990614,0.5324100668264063,0.5324100668264063,NA,NA,NA,NA,NA,NA,NA,0.1609274212130123,0.2558484536475555,0.2558484536475555,NA,NA,NA,NA,NA,NA,NA
15,15,15,E1,E1.1,1,1,S1,23,TrialList5,near,astronaut,space,Locative,astronaut{-}near9,Hard,space9,85948,astronaut{-}sky9,12923,0,astronaut,sky,0,1,close,close9,3390,1,astronaut{-}near9,15641,na,,0,0,,0.0,4,3.627,2.79,9,2.3080000000000003,4.75,6.5,2.9675,3.77,5.0,3.528,3.54,2,5.0,4.049,3.2,0.04077691128564498,0.4728965755506165,0.4728965755506165,0.4932604786015622,-0.00652318818134745,NA,NA,0.21277164529081494,NA,NA,0.02287001769118413,0.9875038831796958,0.9875038831796958,0.9177474585583165,0.0494093390549214,NA,NA,0.0755409552608568,NA,NA,0.022309509779045555,0.7634509498243991,0.7634509498243991,0.8140791164396136,0.045791020810788785,NA,NA,0.11649026761315351,NA,NA,0.183688026311273,0.8931601535300989,0.8931601535300989,0.8044288567120071,0.1453370305048054,NA,NA,0.22972085959708266,NA,NA,0.06960426627385607,0.8097487231049486,0.8097487231049486,0.8039645077113264,0.053343476191857864,NA,NA,0.23252659778209028,NA,NA,0.06563731635336634,0.7886386814758156,0.7886386814758156,0.8549398847798013,0.06713769981617512,NA,NA,0.19840645206226581,NA,NA,0.027439277398388917,0.967580834407267,0.967580834407267,0.9207821271456436,0.029277092995897425,NA,NA,0.06625879157955306,NA,NA
16,16,16,E1,E1.1,1,1,S1,22,TrialList5,homeless,apartment,living,Locative,apartment{-}homeless9,Easy,living9,12491,apartment{-}homeless9,18378,1,apartment,homeless,1,1,na,,0,0,,0,na,,0,0,,0.0,8,2.736,3.04,9,3.627,4.9,8.5,3.1815,3.97,6.0,3.9019999999999997,3.04,1,,,,0.2945124973252742,0.41044306180197676,0.41044306180197676,NA,NA,NA,NA,NA,NA,NA,0.09152594217426924,0.26283300868797344,0.26283300868797344,NA,NA,NA,NA,NA,NA,NA,0.09741276839258817,0.3446977522186807,0.3446977522186807,NA,NA,NA,NA,NA,NA,NA,0.1864745730432268,0.34723715059919935,0.34723715059919935,NA,NA,NA,NA,NA,NA,NA,0.21921931351665425,0.5413040928956465,0.5413040928956465,NA,NA,NA,NA,NA,NA,NA,0.17761672866725386,0.6039239368157528,0.6039239368157528,NA,NA,NA,NA,NA,NA,NA,0.11309147371523276,0.47879495227792956,0.47879495227792956,NA,NA,NA,NA,NA,NA,NA
17,17,17,E1,E1.1,1,1,S1,24,TrialList5,onion,cigarette,pungent,Attributive,cigarette{-}onion9,Medium,pungent9,34203,cigarette{-}onion9,28518,1,cigarette,onion,1,1,na,,0,0,,0,na,,0,0,,0.0,5,2.3369999999999997,4.86,9,3.133,4.88,7.0,2.735,4.87,7.0,1.3219999999999998,2.9,1,,,,0.08666523588386443,0.14289089666972954,0.14289089666972954,NA,NA,NA,NA,NA,NA,NA,0.017709916254413094,NA,NA,NA,NA,NA,NA,NA,NA,NA,0.08603298221952416,NA,NA,NA,NA,NA,NA,NA,NA,NA,0.17406106328379867,NA,NA,NA,NA,NA,NA,NA,NA,NA,0.09543033726807437,0.3503229671928214,0.3503229671928214,NA,NA,NA,NA,NA,NA,NA,0.0855509193069871,0.23037207476872834,0.23037207476872834,NA,NA,NA,NA,NA,NA,NA,0.03471478932138794,0.1197200690057465,0.1197200690057465,NA,NA,NA,NA,NA,NA,NA
18,18,18,E1,E1.1,1,1,S1,27,TrialList6,pants,collar,clothes,Hierarchical,collar{-}pants9,Easy,clothes9,6391,necklace{-}pants9,20290,0,necklace,pants,1,0,dog,dog9,29237,1,collar{-}pants9,2607,na,,0,0,,0.0,5,3.477,4.86,6,2.73,4.64,5.5,3.1035,4.75,7.0,3.713,4.76,2,3.0,3.993,4.85,0.3845448588381085,0.21626911276376537,0.21626911276376537,0.20296096288597065,0.2639079210774127,NA,NA,0.25611752199901994,NA,NA,0.5696484284315101,0.14673696912487866,0.14673696912487866,0.011813790328815466,0.5712423698257626,NA,NA,0.010855160780063211,NA,NA,0.3908877415961758,0.28516167833679873,0.28516167833679873,0.03334101235024145,0.2081643946429923,NA,NA,0.024566238984029876,NA,NA,0.6995894162134746,0.5529087593602778,0.5529087593602778,0.08577106226617359,0.21930621374729853,NA,NA,0.0931325026333909,NA,NA,0.48632231366935774,0.5345902755605736,0.5345902755605736,0.13124911916508752,0.3968307404666864,NA,NA,0.1303384037909342,NA,NA,0.36246640482769243,0.4556630718784789,0.4556630718784789,0.15114581499915003,0.41327286192569934,NA,NA,0.13603837969310895,NA,NA,0.28488930833242154,0.35336399874459956,0.35336399874459956,0.03386227581847978,0.8385312627286629,NA,NA,0.03223094486012257,NA,NA
19,19,19,E1,E1.1,1,1,S1,26,TrialList6,definition,assist,helpful,Coordinate,assist{-}definition9,Hard,helpful9,4972,assist{-}welfare9,23447,0,assist,welfare,0,1,word,words9,3173,1,assist{-}definition9,8504,na,,0,0,,0.0,10,2.4730000000000003,3.07,6,2.603,2.52,8.0,2.5380000000000003,2.795,7.0,2.792,1.76,2,4.0,4.08,3.56,0.05124172991962617,0.30445291076654657,0.30445291076654657,0.38670350044896173,0.03045966185729765,NA,NA,0.22293346290712446,NA,NA,-0.02469190901235163,0.3957668917686241,0.3957668917686241,0.7546050961721037,-0.0028024153387884443,NA,NA,0.11431103094721273,NA,NA,-0.025401597737491066,0.2514347874260461,0.2514347874260461,0.5704220608245057,0.04403206978235186,NA,NA,0.20974849370493076,NA,NA,0.14830916847596853,0.3690473639281686,0.3690473639281686,0.8164555133969845,0.16516315023805295,NA,NA,0.3291865486547616,NA,NA,0.047199135560274774,0.6962322528746445,0.6962322528746445,0.7434279797481071,0.08321883373100558,NA,NA,0.14715683237829957,NA,NA,0.06643254232660933,0.6689800796199094,0.6689800796199094,0.7188134131213192,0.095770325555673,NA,NA,0.15729052906170016,NA,NA,0.13339191491412317,0.5309333181499113,0.5309333181499113,0.7833781656444971,0.051538892747841625,NA,NA,0.07035463089735916,NA,NA
20,20,20,E1,E1.1,1,1,S1,28,TrialList6,war,quiet,peace,Coordinate,quiet{-}war9,Medium,peace9,10673,quiet{-}war9,22042,1,quiet,war,1,1,na,,0,0,,0,na,,0,0,,0.0,3,3.95,3.63,5,3.7769999999999997,2.76,4.0,3.8635,3.195,5.0,3.55,1.62,1,,,,0.21879318524664315,0.29837752096832615,0.29837752096832615,NA,NA,NA,NA,NA,NA,NA,0.19727856350406103,0.5054298781055753,0.5054298781055753,NA,NA,NA,NA,NA,NA,NA,0.1080394175681132,0.5320468817659254,0.5320468817659254,NA,NA,NA,NA,NA,NA,NA,0.1720066423822637,0.5598392897895088,0.5598392897895088,NA,NA,NA,NA,NA,NA,NA,0.09187364508930729,0.6028105050548114,0.6028105050548114,NA,NA,NA,NA,NA,NA,NA,0.07938151223439172,0.5824611158894244,0.5824611158894244,NA,NA,NA,NA,NA,NA,NA,0.05014546146881438,0.5534240970239566,0.5534240970239566,NA,NA,NA,NA,NA,NA,NA
21,21,21,E1,E1.1,1,1,S1,30,TrialList7,flat,alike,similar,Coordinate,alike{-}flat9,Hard,similar9,35382,alike{-}competition9,43130,0,alike,competition,0,1,boring,boring9,6829,1,alike{-}flat9,37622,na,,0,0,,0.0,4,3.127,4.07,5,2.763,2.38,4.5,2.945,3.225,7.0,2.843,2.46,2,6.0,3.146,2.07,0.1175618208308713,0.22266509090718434,0.22266509090718434,0.22521563661705823,0.20541724914536796,NA,NA,0.1283111686305508,NA,NA,-0.0032196934085009232,0.9992737160240104,0.9992737160240104,-0.01324168025102579,0.1646571226943705,NA,NA,0.16690003303533751,NA,NA,0.012032673952740769,0.9792760572012477,0.9792760572012477,0.10952425083889883,0.05254659895893077,NA,NA,0.07074060192677933,NA,NA,0.09346354256077682,0.9724011475592997,0.9724011475592997,0.14697060739800083,0.1706896878891312,NA,NA,0.18036548864847113,NA,NA,0.10847268425154033,0.9666006159723619,0.9666006159723619,0.4596807254684214,0.16658512551183102,NA,NA,0.18124362379387793,NA,NA,0.0779036904502638,0.9779942674749137,0.9779942674749137,0.43030729598169737,0.13704697504801566,NA,NA,0.14392223694858952,NA,NA,0.037464669737218625,0.993804726956332,0.993804726956332,0.298182499152124,0.09051937459578563,NA,NA,0.07915495276309137,NA,NA
22,22,22,E1,E1.1,1,1,S1,32,TrialList7,perjury,adultery,wrong,Attributive,adultery{-}perjury9,Easy,wrong9,14531,adultery{-}perjury9,10849,1,adultery,perjury,1,1,na,,0,0,,0,na,,0,0,,0.0,7,2.064,2.22,8,2.0,2.79,7.5,2.032,2.505,5.0,4.426,1.83,1,,,,0.44276668923560214,0.19045623993171346,0.19045623993171346,NA,NA,NA,NA,NA,NA,NA,0.6307742399920472,0.28049203336459017,0.28049203336459017,NA,NA,NA,NA,NA,NA,NA,0.36502573603081045,0.3365908035170537,0.3365908035170537,NA,NA,NA,NA,NA,NA,NA,-0.009893670623549955,0.2816654717351401,0.2816654717351401,NA,NA,NA,NA,NA,NA,NA,0.4939673646094517,0.46135752841475175,0.46135752841475175,NA,NA,NA,NA,NA,NA,NA,0.4061849976779286,0.4128518289149692,0.4128518289149692,NA,NA,NA,NA,NA,NA,NA,0.2580792151570289,0.3552747897117745,0.3552747897117745,NA,NA,NA,NA,NA,NA,NA
23,23,23,E1,E1.1,1,1,S1,31,TrialList7,heavy,feather,weight,Hierarchical,feather{-}heavy9,Medium,weight9,23943,feather{-}heavy9,22364,1,feather,heavy,1,1,na,,0,0,,0,na,,0,0,,0.0,5,3.383,3.37,7,2.53,4.9,6.0,2.9565,4.135,6.0,3.267,3.94,1,,,,0.07832944140837106,0.17913260635300832,0.17913260635300832,NA,NA,NA,NA,NA,NA,NA,0.3269049465638787,0.0832129517799387,0.0832129517799387,NA,NA,NA,NA,NA,NA,NA,0.07265493666959078,0.13143709792940328,0.13143709792940328,NA,NA,NA,NA,NA,NA,NA,0.10864241725424861,0.12227221241959585,0.12227221241959585,NA,NA,NA,NA,NA,NA,NA,0.09667067394548379,0.08328770343097658,0.08328770343097658,NA,NA,NA,NA,NA,NA,NA,0.11648914035368274,0.12705318089990703,0.12705318089990703,NA,NA,NA,NA,NA,NA,NA,0.11828980999886152,0.08669687388916225,0.08669687388916225,NA,NA,NA,NA,NA,NA,NA
24,24,24,E1,E1.1,1,1,S1,35,TrialList8,breeze,bubble,gentle,Attributive,breeze{-}bubble9,Easy,gentle9,27345,bubble{-}care9,37070,0,bubble,care,0,1,blow,blow9,25034,1,bubble{-}breeze9,19253,na,alphabetical9,11882,0,breeze{-}care9,7074.0,6,2.614,3.62,6,2.612,4.6,6.0,2.613,4.11,6.0,2.927,2.53,2,4.0,3.697,3.74,0.12367176955175485,0.13920903585365574,0.13920903585365574,0.2657636295605239,0.18902325078498938,NA,NA,0.15185051850867293,NA,NA,0.06262426802593657,0.0026163029680972283,0.0026163029680972283,0.8100236250108821,0.23534809962018843,NA,NA,0.09258693175661437,NA,NA,0.1436461853510922,0.021667472576355706,0.021667472576355706,0.4718522355630266,0.3858514122293585,NA,NA,0.06427434615416239,NA,NA,0.34218555665090244,0.15963811472708833,0.15963811472708833,0.47450042663994685,0.5561034615483451,NA,NA,0.12275929437604549,NA,NA,0.23135430462406015,0.09171247116443582,0.09171247116443582,0.4915285957393045,0.4293995950805155,NA,NA,0.08725436584091018,NA,NA,0.16300033287699878,0.07875633126880455,0.07875633126880455,0.5143946609776925,0.3194130151962957,NA,NA,0.08323557119522906,NA,NA,0.14983300027037838,0.03185855202687371,0.03185855202687371,0.8535138851759208,0.24202681596872022,NA,NA,0.06408915540197568,NA,NA
25,25,25,E1,E1.1,1,1,S1,34,TrialList8,bad,actress,Riverdale,Idiosyncratic,actress{-}bad9,Medium,riverdale9,128554,actress{-}party9,108192,0,actress,party,0,1,dislike,disliked9,28298,0,actress{-}trash9,17801,poor,poor9,24592,0,bad{-}trash9,3692.0,3,4.444,1.68,7,2.9130000000000003,4.54,5.0,3.6785,3.11,,,,4,7.0,2.303,1.7,0.14857147853658803,NA,NA,0.17651127024578872,0.04212250067758605,0.5074967644188804,0.06670592778576412,NA,0.08587217747115838,NA,0.003954859031499058,NA,NA,0.07039633425520875,-0.05052506670023682,0.1278963774781232,0.01593789680159896,NA,0.005830134215646932,NA,0.041621766331644716,NA,NA,0.31295183085132605,0.04846684118147837,0.22793854564310656,0.1299308874271412,NA,0.025217076545495765,NA,0.15734131454238187,NA,NA,0.457596060480421,0.1994953954514107,0.3075098274370396,0.16809083047894335,NA,0.14995373240312526,NA,0.05962909593985943,NA,NA,0.537745475112138,0.010444050510791558,0.3452260787262328,0.06551649932361703,NA,0.10496206776235317,NA,0.05773366889628806,NA,NA,0.3559767471298645,-0.005092905159465921,0.33126990465963846,0.050140301473492466,NA,0.06997636389282269,NA,0.03704300884133249,NA,NA,0.14994083670010527,0.0003463316654548354,0.19672797675687548,0.016421294144904786,NA,0.012746847501578507,NA
26,26,26,E1,E1.1,1,1,S1,36,TrialList8,communicate,cooking,kitchen,Locative,communicate{-}cooking9,Hard,kitchen9,20930,cooking{-}trash9,48758,0,cooking,trash,0,1,talking,talking9,6216,1,communicate{-}cooking9,11602,na,,0,0,,0.0,11,2.639,3.43,7,3.117,4.19,9.0,2.878,3.81,7.0,3.4739999999999998,4.97,2,7.0,4.405,3.72,0.08973472060279919,0.5942602281351852,0.5942602281351852,0.30123066437001866,0.24136778083995147,NA,NA,0.2825115014094104,NA,NA,0.008152736899328827,0.8306802721482816,0.8306802721482816,NA,NA,NA,NA,NA,NA,NA,0.027437781500747715,0.7058895784663595,0.7058895784663595,NA,NA,NA,NA,NA,NA,NA,0.06744832351911023,0.7665311122909052,0.7665311122909052,NA,NA,NA,NA,NA,NA,NA,0.017125447299145558,0.7983979390879451,0.7983979390879451,0.8019471518598532,0.024229416902711853,NA,NA,0.02484887419758819,NA,NA,0.0142825033398013,0.7568972887474024,0.7568972887474024,0.7687363707452367,0.024755454666666732,NA,NA,0.02299732527889986,NA,NA,0.01211800911468619,0.8848116828252484,0.8848116828252484,0.8922864858074104,0.015483218272225319,NA,NA,0.02011889317059501,NA,NA
27,27,27,E1,E1.1,1,1,S1,38,TrialList9,bat,bounce,fly,Attributive,bat{-}bounce9,Easy,fly9,26316,bat{-}Dracula9,58194,0,bat,Dracula,1,0,baseball,baseball9,29178,1,bat{-}bounce9,34925,na,,0,0,,0.0,3,3.022,5.0,6,2.702,3.86,4.5,2.862,4.43,3.0,3.637,4.64,2,8.0,3.11,4.86,0.3377705815805987,0.2403260701014156,0.2403260701014156,0.3547516476998088,0.09037457085764888,NA,NA,0.1992720065463146,NA,NA,0.8087624476605485,0.07603096358133543,0.07603096358133543,0.7972392092425713,0.5434804304520787,NA,NA,0.03209299451806824,NA,NA,0.22581177199640967,0.16103020887407926,0.16103020887407926,0.4998343156147076,0.3107835377723489,NA,NA,0.06647821548927513,NA,NA,0.39546451316327547,0.22555271781173492,0.22555271781173492,0.6548583309056225,0.5206277315441934,NA,NA,0.14476651587719958,NA,NA,0.42837032730321745,0.15759921167730306,0.15759921167730306,0.6709606858233524,0.4871534188642438,NA,NA,0.17678084970705932,NA,NA,0.42849582255887286,0.170599170430639,0.170599170430639,0.6355643089834133,0.4719362394915875,NA,NA,0.21700959584303658,NA,NA,0.6244708447959044,0.09848918821159047,0.09848918821159047,0.8733870613332613,0.629295086581767,NA,NA,0.11259646101809317,NA,NA
28,28,28,E1,E1.1,1,1,S1,40,TrialList9,toes,Dracula,scary,Attributive,Dracula{-}toes9,Hard,scary9,21662,bacteria{-}Dracula9,31830,0,bacteria,Dracula,0,1,gross,gross9,18468,0,bacteria{-}bat9,26669,feet,feet9,23129,0,bacteria{-}toes9,6080.0,4,2.805,,7,,,5.5,2.805,,5.0,3.1260000000000003,3.0,4,5.0,2.892,2.96,0.05963638560721618,0.19413219953420813,0.19413219953420813,0.036460032364014516,-0.04131430611308917,0.44610926078357427,-0.020677228320137075,0.104823880367661,0.1657507848137274,0.10035575363913485,0.007869726166263247,0.26520905491326685,0.26520905491326685,0.024288095060428283,0.06839110483128952,0.9678104097066763,0.0032597305482702232,0.10665847501788372,0.019219153817861878,-0.0017588391773155632,0.028983044017098725,0.4961426005290578,0.4961426005290578,0.14428352069843509,0.034380509875174714,0.8480668065454653,-0.006849833114180637,0.22492414052302312,0.09863343341984898,0.03930693260206508,0.0604587258165179,0.6135271339901245,0.6135271339901245,0.23128282037955206,0.12421675423246525,0.8929849873910137,0.059689185062755,0.3319625692140964,0.19619445685668746,0.08271328995519744,0.0678890301133146,0.572352647846271,0.572352647846271,0.21835869380137995,0.13169248128082933,0.8475316472808786,0.049219449207053345,0.2231731872751016,0.2297984854744306,0.05894938609374989,0.0077884628926254695,0.4790308688743209,0.4790308688743209,0.1797357138080562,0.05822178580041193,0.8166749341941852,-0.002035414393698032,0.20476594052204677,0.2124006228970211,0.07767597433334161,0.01470976802727686,0.17028436970028493,0.17028436970028493,0.0769529101412546,0.05480398036593248,0.9099931739532299,0.011655214340607012,0.14558799798642685,0.10060155257306391,0.02482800238866334
29,29,29,E1,E1.1,1,1,S1,39,TrialList9,lunch,almond,food,Hierarchical,almond{-}lunch9,Medium,food9,6755,almond{-}lunch9,12775,1,almond,lunch,1,1,na,,0,0,,0,na,,0,0,,0.0,5,3.725,4.31,6,1.756,4.71,5.5,2.7405,4.51,4.0,3.8960000000000004,4.8,1,,,,0.049139239257680045,0.0495146543517937,0.0495146543517937,NA,NA,NA,NA,NA,NA,NA,0.01863138217520166,0.04728461418900598,0.04728461418900598,NA,NA,NA,NA,NA,NA,NA,0.009425455775623481,0.12173100405781023,0.12173100405781023,NA,NA,NA,NA,NA,NA,NA,0.1456356207723295,0.23236942869971622,0.23236942869971622,NA,NA,NA,NA,NA,NA,NA,0.21260013224321195,0.36294416198377166,0.36294416198377166,NA,NA,NA,NA,NA,NA,NA,0.06278677511116493,0.1950835834694402,0.1950835834694402,NA,NA,NA,NA,NA,NA,NA,0.12338953628166238,0.24369235608052064,0.24369235608052064,NA,NA,NA,NA,NA,NA,NA
30,30,30,E1,E1.2,2,1,S1,8,TrialList1,void,couch,move,Attributive,couch{-}void9,Hard,moving9,18528,couch{-}lead9,33237,0,couch,lead,0,1,spacious,spacious9,82961,0,depth{-}void9,26704,movingout,moving{SPACE}out9,32947,0,burglar{-}couch9,23176.0,4,2.322,2.62,5,3.0789999999999997,4.71,4.5,2.7005,3.665,4.0,4.329,3.25,4,8.0,1.771,2.56,0.06154606635450122,0.07030144188595189,0.07030144188595189,0.09639182924839829,0.25989271414794346,NA,NA,0.09011512977656178,NA,NA,-0.01695988452239927,0.043908480938286476,0.043908480938286476,NA,NA,NA,NA,NA,NA,NA,-0.007320074254923092,0.06856369361018166,0.06856369361018166,NA,NA,NA,NA,NA,NA,NA,0.025040346553151793,0.19889529288197294,0.19889529288197294,NA,NA,NA,NA,NA,NA,NA,0.019018169566455523,0.08405670775465812,0.08405670775465812,0.30526322290548324,0.23212149288268658,NA,NA,0.05406922140585069,NA,NA,0.01178667862088767,0.0524357197656693,0.0524357197656693,0.30784412839793585,0.1690809093704806,NA,NA,0.07846127893632371,NA,NA,0.004049342820268476,0.029102130775103485,0.029102130775103485,0.22388616680758444,0.06450477294152324,NA,NA,0.08060278386920472,NA,NA
31,31,31,E1,E1.2,2,1,S1,7,TrialList1,giggle,abnormal,goofy,Attributive,abnormal{-}giggle9,Medium,goofy9,7680,abnormal{-}giggle9,29248,1,abnormal,giggle,1,1,na,,0,0,,0,na,,0,0,,0.0,6,1.944,3.72,8,2.173,2.14,7.0,2.0585,2.93,5.0,2.426,2.62,1,,,,0.1110432235928066,0.07083054525184063,0.07083054525184063,NA,NA,NA,NA,NA,NA,NA,-0.011942076206493235,NA,NA,NA,NA,NA,NA,NA,NA,NA,-0.00654498518437574,NA,NA,NA,NA,NA,NA,NA,NA,NA,0.08598495913270976,NA,NA,NA,NA,NA,NA,NA,NA,NA,0.020898145861131034,0.4099622622298533,0.4099622622298533,NA,NA,NA,NA,NA,NA,NA,-0.01842087042047913,0.37855910650363567,0.37855910650363567,NA,NA,NA,NA,NA,NA,NA,-0.009822552747094093,0.31458703996009585,0.31458703996009585,NA,NA,NA,NA,NA,NA,NA
32,32,32,E1,E1.2,2,1,S1,6,TrialList1,exam,algebra,math,Hierarchical,algebra{-}exam9,Easy,math9,37366,algebra{-}exam9,9204,1,algebra,exam,1,1,na,,0,0,,0,na,,0,0,,0.0,4,2.8360000000000003,4.48,7,1.959,3.14,5.5,2.3975,3.81,4.0,2.923,3.15,1,,,,0.294723332823305,0.3953460176553689,0.3953460176553689,NA,NA,NA,NA,NA,NA,NA,-0.014297108294813343,0.99665617842181,0.99665617842181,NA,NA,NA,NA,NA,NA,NA,0.29918502428244254,0.8671074913860983,0.8671074913860983,NA,NA,NA,NA,NA,NA,NA,0.3960302023261757,0.9195650037931234,0.9195650037931234,NA,NA,NA,NA,NA,NA,NA,0.2540965051611994,0.9590594575256929,0.9590594575256929,NA,NA,NA,NA,NA,NA,NA,0.2033902588087303,0.9364708672516164,0.9364708672516164,NA,NA,NA,NA,NA,NA,NA,0.1481970968234444,0.9877439806351994,0.9877439806351994,NA,NA,NA,NA,NA,NA,NA
33,33,33,E1,E1.2,2,1,S1,44,TrialList10,tourist,comedy,Las Vegas,Locative,comedy{-}tourist9,Medium,las{SPACE}vegas9,62044,hand{-}tourist9,11632,0,hand,tourist,1,0,show,show9,6894,1,comedy{-}tourist9,10892,na,,0,0,,0.0,7,2.377,4.59,6,2.78,3.1,6.5,2.5785,3.845,,,,2,4.0,4.396,3.97,0.07477245966062318,0.04982639024027535,0.04982639024027535,0.1508137704762842,0.5196503422397257,NA,NA,-0.007215542884730475,NA,NA,0.15795762466526297,NA,NA,0.10450700593482853,0.117383241257349,NA,NA,NA,NA,NA,0.08144181105609327,NA,NA,0.1236567021453685,0.31102222575989713,NA,NA,NA,NA,NA,0.17568418692190646,NA,NA,0.21405113046480895,0.666365910859897,NA,NA,NA,NA,NA,0.044277614695844125,0.07051526603278635,0.07051526603278635,0.12213443319750061,0.5059705696467335,NA,NA,0.146751384463347,NA,NA,0.043585534599366316,0.033424675258678205,0.033424675258678205,0.14749382720841342,0.44512245549741003,NA,NA,0.14897754789642936,NA,NA,0.02299368319368067,0.03769802758269625,0.03769802758269625,0.0050986036228715115,0.24359096466776764,NA,NA,0.07322319677020428,NA,NA
34,34,34,E1,E1.2,2,1,S1,43,TrialList10,tea,bean,Starbucks,Locative,bean{-}tea9,Easy,starbucks9,7471,bean{-}tea9,10944,1,bean,tea,1,1,na,,0,0,,0,na,,0,0,,0.0,3,3.4760000000000004,4.69,4,2.544,5.0,3.5,3.01,4.845,,,,1,,,,0.3237202899988505,NA,NA,NA,NA,NA,NA,NA,NA,NA,0.07121897254364551,NA,NA,NA,NA,NA,NA,NA,NA,NA,0.2255829418056523,NA,NA,NA,NA,NA,NA,NA,NA,NA,0.4456816207686016,NA,NA,NA,NA,NA,NA,NA,NA,NA,0.32606791132605994,NA,NA,NA,NA,NA,NA,NA,NA,NA,0.20753849572287286,NA,NA,NA,NA,NA,NA,NA,NA,NA,0.2204120614447529,NA,NA,NA,NA,NA,NA,NA,NA,NA
35,35,35,E1,E1.2,2,1,S1,42,TrialList10,pendulum,dusk,time,Attributive,dusk{-}pendulum9,Hard,time9,10283,dusk{-}pendulum9,26898,1,dusk,pendulum,1,1,na,,0,0,,0,na,,0,0,,0.0,8,1.4469999999999998,4.69,4,1.7919999999999998,4.24,6.0,1.6195,4.465,4.0,5.0,3.07,1,,,,0.1101165376971549,0.16372678211323455,0.16372678211323455,NA,NA,NA,NA,NA,NA,NA,0.020707103592874865,0.023969891891288064,0.023969891891288064,NA,NA,NA,NA,NA,NA,NA,-0.003386328682679851,0.10019582175320274,0.10019582175320274,NA,NA,NA,NA,NA,NA,NA,-0.0054514599394916985,0.42562378854964056,0.42562378854964056,NA,NA,NA,NA,NA,NA,NA,-0.0022916221934277115,0.2474085788202619,0.2474085788202619,NA,NA,NA,NA,NA,NA,NA,0.036024428892065696,0.22570895580007888,0.22570895580007888,NA,NA,NA,NA,NA,NA,NA,0.05007930353723866,0.0985025490743432,0.0985025490743432,NA,NA,NA,NA,NA,NA,NA
36,36,36,E1,E1.2,2,1,S1,10,TrialList2,beginning,brake,restart,Coordinate,beginning{-}brake9,Hard,restart9,105313,beginning{-}stop9,35811,0,beginning,stop,1,0,bicycle,bicycle9,54881,0,brake{-}stop9,10098,restart,restart9,27413,1,beginning{-}brake9,9192.0,9,3.508,2.5,5,2.4859999999999998,4.44,7.0,2.997,3.47,,,,3,7.0,2.529,4.89,0.04710721895062209,0.17097344088989064,0.17097344088989064,0.10979114094675335,0.299900867221654,0.20520960760382556,0.17097344088989064,0.08959732557532163,0.08959732557532163,1.0,0.10916630870839883,NA,NA,0.0007494255610139833,0.3732123751970249,NA,NA,NA,NA,NA,0.09612179298057477,NA,NA,0.014223124697840483,0.523269325199742,NA,NA,NA,NA,NA,0.11601867687603173,NA,NA,0.07990603221978043,0.6304623175320527,NA,NA,NA,NA,NA,0.11965929460068203,0.09658440858329609,0.09658440858329609,0.04626090540218719,0.6642031569679484,0.482459363725235,0.09658440858329609,0.10235267511233781,0.10235267511233781,0.9999999999999999,0.10444240443630548,0.08508327294121398,0.08508327294121398,0.036947690705837366,0.5992742398580657,0.526375233027121,0.08508327294121398,0.0702568738292586,0.0702568738292586,1.0,0.08194186374098023,0.11962968645404515,0.11962968645404515,0.009289428843772707,0.35800010815250305,0.4631448164814731,0.11962968645404515,0.06795678133789629,0.06795678133789629,1.0
37,37,37,E1,E1.2,2,1,S1,11,TrialList2,birds,aircraft,fly,Attributive,aircraft{-}birds9,Easy,flying9,10936,aircraft{-}birds9,14087,1,aircraft,birds,1,1,na,,0,0,,0,na,,0,0,,0.0,5,3.1210000000000004,,8,2.6839999999999997,4.4,6.5,2.9025,4.4,3.0,3.637,4.64,1,,,,0.24283443351233158,0.48735597189530244,0.48735597189530244,NA,NA,NA,NA,NA,NA,NA,0.544180951939714,0.6570926693662666,0.6570926693662666,NA,NA,NA,NA,NA,NA,NA,0.06828938527906625,0.6420283322111356,0.6420283322111356,NA,NA,NA,NA,NA,NA,NA,0.12355777933393064,0.5771188710349817,0.5771188710349817,NA,NA,NA,NA,NA,NA,NA,0.3324465196358649,0.7005747812569145,0.7005747812569145,NA,NA,NA,NA,NA,NA,NA,0.2647665220475719,0.6960898484980865,0.6960898484980865,NA,NA,NA,NA,NA,NA,NA,0.44920937688962104,0.7482314065680119,0.7482314065680119,NA,NA,NA,NA,NA,NA,NA
38,38,38,E1,E1.2,2,1,S1,12,TrialList2,school,stop,graduate,Attributive,school{-}stop9,Medium,graduate9,11595,school{-}stop9,19967,1,school,stop,1,1,na,,0,0,,0,na,,0,0,,0.0,6,4.23,4.79,4,4.5569999999999995,3.68,5.0,4.3935,4.235,8.0,2.795,3.07,1,,,,0.2040524961806478,0.02679518880880094,0.02679518880880094,NA,NA,NA,NA,NA,NA,NA,0.005245203754469574,0.0029056816984175393,0.0029056816984175393,NA,NA,NA,NA,NA,NA,NA,0.02249429955419202,0.06886828757797014,0.06886828757797014,NA,NA,NA,NA,NA,NA,NA,0.16099766073775457,0.1671750334669435,0.1671750334669435,NA,NA,NA,NA,NA,NA,NA,0.13428933996019032,0.09666375231750401,0.09666375231750401,NA,NA,NA,NA,NA,NA,NA,0.14586464575726366,0.09170225565144219,0.09170225565144219,NA,NA,NA,NA,NA,NA,NA,0.03612845499674988,0.037182439990857574,0.037182439990857574,NA,NA,NA,NA,NA,NA,NA
39,39,39,E1,E1.2,2,1,S1,16,TrialList3,hundred,economy,percentage,Attributive,economy{-}hundred9,Hard,percentages9,27848,college{-}hundred9,30938,0,college,hundred,1,0,money,money9,24587,1,economy{-}hundred9,9704,na,,0,0,,0.0,7,3.6039999999999996,3.2,7,2.4730000000000003,2.57,7.0,3.0385,2.885,10.0,2.286,2.9,2,5.0,4.514,4.54,0.07293522181313483,0.24994475712104225,0.24994475712104225,0.20541107051468965,0.3367531109640425,NA,NA,0.29451750203879357,NA,NA,0.7661413778949194,0.28520460970508243,0.28520460970508243,0.7712820732731945,0.9970436241541036,NA,NA,0.2824459099655193,NA,NA,0.14300501538634958,0.20648676259655152,0.20648676259655152,0.3452111924037188,0.5412440277318825,NA,NA,0.2210208779919003,NA,NA,0.1045959380963688,0.04173449614194924,0.04173449614194924,0.3553232679747499,0.5151879035708551,NA,NA,0.0988385335011005,NA,NA,0.16097611139001233,0.35417113987488325,0.35417113987488325,0.3189553595238117,0.794766973316496,NA,NA,0.41733747897245266,NA,NA,0.10103429317547097,0.26387340187339436,0.26387340187339436,0.3092426799657313,0.6994815491383563,NA,NA,0.33009609757089187,NA,NA,0.4538111147338464,0.448929512509616,0.448929512509616,0.48964790974524275,0.9713556733567561,NA,NA,0.4663026018946834,NA,NA
40,40,40,E1,E1.2,2,1,S1,15,TrialList3,famine,calorie,food,Hierarchical,calorie{-}famine9,Medium,food9,14985,calorie{-}famine9,15038,1,calorie,famine,1,1,na,,0,0,,0,na,,0,0,,0.0,6,1.9140000000000001,3.55,7,1.114,3.44,6.5,1.514,3.495,4.0,3.8960000000000004,4.8,1,,,,0.04115799046969559,0.3029011662351544,0.3029011662351544,NA,NA,NA,NA,NA,NA,NA,0.39690568333035214,0.5323205813079563,0.5323205813079563,NA,NA,NA,NA,NA,NA,NA,0.14703531854175256,0.313874486779006,0.313874486779006,NA,NA,NA,NA,NA,NA,NA,0.02614790138716605,0.12105088305975531,0.12105088305975531,NA,NA,NA,NA,NA,NA,NA,0.3891061552649048,0.5979938958119623,0.5979938958119623,NA,NA,NA,NA,NA,NA,NA,0.19778901573013918,0.4685318371286764,0.4685318371286764,NA,NA,NA,NA,NA,NA,NA,0.692817029104818,0.900765342718155,0.900765342718155,NA,NA,NA,NA,NA,NA,NA
41,41,41,E1,E1.2,2,1,S1,14,TrialList3,circle,dance,twirl,Attributive,circle{-}dance9,Easy,twirling9,53160,circle{-}dance9,3415,1,circle,dance,1,1,na,,0,0,,0,na,,0,0,,0.0,6,3.0410000000000004,4.44,5,3.878,4.32,5.5,3.4595,4.38,5.0,1.8330000000000002,3.92,1,,,,0.25112143733364056,0.2004447625586675,0.2004447625586675,NA,NA,NA,NA,NA,NA,NA,0.03250755520566895,NA,NA,NA,NA,NA,NA,NA,NA,NA,0.09524927718600407,NA,NA,NA,NA,NA,NA,NA,NA,NA,0.18878186089693094,NA,NA,NA,NA,NA,NA,NA,NA,NA,0.24137399218571443,0.575609103617632,0.575609103617632,NA,NA,NA,NA,NA,NA,NA,0.23484988405725837,0.5342729071283829,0.5342729071283829,NA,NA,NA,NA,NA,NA,NA,0.06389749936520706,0.6139445257844282,0.6139445257844282,NA,NA,NA,NA,NA,NA,NA
42,42,42,E1,E1.2,2,1,S1,20,TrialList4,kitchen,egg,bake,Argument,egg{-}kitchen9,Easy,baking9,13584,berry{-}egg9,5804,0,berry,egg,0,1,fridge,fridge9,28298,1,egg{-}kitchen9,3083,na,,0,0,,0.0,7,3.4739999999999998,4.97,3,3.123,4.97,5.0,3.2985,4.97,4.0,2.51,4.21,2,6.0,2.702,4.92,0.22159717286980696,0.3679245282302941,0.3679245282302941,0.4588662852074392,0.1571836637212679,NA,NA,0.34939387483486184,NA,NA,0.014548312400183283,0.03105292102500523,0.03105292102500523,NA,NA,NA,NA,NA,NA,NA,0.0648936691848857,0.20303409091619096,0.20303409091619096,NA,NA,NA,NA,NA,NA,NA,0.24645053267682482,0.5008657753587745,0.5008657753587745,NA,NA,NA,NA,NA,NA,NA,0.443001346240698,0.5957545271156993,0.5957545271156993,0.4828892158636833,0.3271311577974879,NA,NA,0.41994998699892494,NA,NA,0.3019565917990614,0.39967692378364017,0.39967692378364017,0.3524275193704367,0.1863398626588164,NA,NA,0.16374682082136172,NA,NA,0.1609274212130123,0.15767542064668105,0.15767542064668105,0.5181124560166255,0.08238751423472701,NA,NA,0.23369289643666313,NA,NA
43,43,43,E1,E1.2,2,1,S1,19,TrialList4,graph,copy,paper,Argument,copy{-}graph9,Medium,paper9,18306,copy{-}graph9,13130,1,copy,graph,1,1,na,,0,0,,0,na,,0,0,,0.0,5,1.591,4.66,4,3.426,3.9,4.5,2.5085,4.28,5.0,3.722,4.93,1,,,,0.09015091617847037,0.4613421134404029,0.4613421134404029,NA,NA,NA,NA,NA,NA,NA,0.08646645328756741,0.20071657616361926,0.20071657616361926,NA,NA,NA,NA,NA,NA,NA,0.02117011564566318,0.3828782826611541,0.3828782826611541,NA,NA,NA,NA,NA,NA,NA,0.06267822705621051,0.3426736001707884,0.3426736001707884,NA,NA,NA,NA,NA,NA,NA,0.13552450958647766,0.4359321960952133,0.4359321960952133,NA,NA,NA,NA,NA,NA,NA,0.0896045667060783,0.386976211839859,0.386976211839859,NA,NA,NA,NA,NA,NA,NA,0.09365716248784373,0.2229072598182149,0.2229072598182149,NA,NA,NA,NA,NA,NA,NA
44,44,44,E1,E1.2,2,1,S1,18,TrialList4,corpse,fight,war,Temporal,corpse{-}fight9,Hard,war9,7012,corpse{-}fight9,25574,1,corpse,fight,1,1,na,,0,0,,0,na,,0,0,,0.0,6,2.713,4.89,5,4.011,4.2,5.5,3.362,4.545,3.0,3.95,3.63,1,,,,0.019716625909948826,0.4486197997316823,0.4486197997316823,NA,NA,NA,NA,NA,NA,NA,-0.0021564468163808304,0.589789517714289,0.589789517714289,NA,NA,NA,NA,NA,NA,NA,0.010450123104046805,0.6049874196703477,0.6049874196703477,NA,NA,NA,NA,NA,NA,NA,0.04236206000665965,0.6834045828932737,0.6834045828932737,NA,NA,NA,NA,NA,NA,NA,0.06299388723568344,0.6934407862425266,0.6934407862425266,NA,NA,NA,NA,NA,NA,NA,0.05718467120886639,0.6272639674183983,0.6272639674183983,NA,NA,NA,NA,NA,NA,NA,0.00781793939648534,0.5099115820462575,0.5099115820462575,NA,NA,NA,NA,NA,NA,NA
45,45,45,E1,E1.2,2,1,S1,23,TrialList5,near,astronaut,moon,Locative,astronaut{-}near9,Hard,moon9,85470,astronaut{-}sky9,8282,0,astronaut,sky,0,1,orbit,orbit9,36748,1,astronaut{-}near9,16987,na,,0,0,,0.0,4,3.627,2.79,9,2.3080000000000003,4.75,6.5,2.9675,3.77,4.0,3.406,4.9,2,5.0,2.461,3.93,0.04077691128564498,0.30302472733579977,0.30302472733579977,0.17121177450380065,0.4079785080509776,NA,NA,0.48821605193893136,NA,NA,0.02287001769118413,0.7535096597120525,0.7535096597120525,NA,NA,NA,NA,NA,NA,NA,0.022309509779045555,0.5977203264420529,0.5977203264420529,NA,NA,NA,NA,NA,NA,NA,0.183688026311273,0.6845626083845816,0.6845626083845816,NA,NA,NA,NA,NA,NA,NA,0.06960426627385607,0.7551707851584648,0.7551707851584648,0.0684393164131285,0.8066783097989052,NA,NA,0.7962997046158503,NA,NA,0.06563731635336634,0.6536623402663949,0.6536623402663949,0.028466400462387798,0.6234716762574888,NA,NA,0.7670182995258132,NA,NA,0.027439277398388917,0.695657470617689,0.695657470617689,0.024095933397880964,0.6596206346655882,NA,NA,0.7378800151983391,NA,NA
46,46,46,E1,E1.2,2,1,S1,22,TrialList5,homeless,apartment,gentrification,Hierarchical,apartment{-}homeless9,Easy,gentrification9,28089,apartment{-}homeless9,21730,1,apartment,homeless,1,1,na,,0,0,,0,na,,0,0,,0.0,8,2.736,3.04,9,3.627,4.9,8.5,3.1815,3.97,,,,1,,,,0.2945124973252742,NA,NA,NA,NA,NA,NA,NA,NA,NA,0.09152594217426924,NA,NA,NA,NA,NA,NA,NA,NA,NA,0.09741276839258817,NA,NA,NA,NA,NA,NA,NA,NA,NA,0.1864745730432268,NA,NA,NA,NA,NA,NA,NA,NA,NA,0.21921931351665425,NA,NA,NA,NA,NA,NA,NA,NA,NA,0.17761672866725386,NA,NA,NA,NA,NA,NA,NA,NA,NA,0.11309147371523276,NA,NA,NA,NA,NA,NA,NA,NA,NA
47,47,47,E1,E1.2,2,1,S1,24,TrialList5,onion,cigarette,smell,Attributive,cigarette{-}onion9,Medium,smelly9,7134,cigarette{-}onion9,10172,1,cigarette,onion,1,1,na,,0,0,,0,na,,0,0,,0.0,5,2.3369999999999997,4.86,9,3.133,4.88,7.0,2.735,4.87,5.0,3.627,3.7,1,,,,0.08666523588386443,0.2145686655282104,0.2145686655282104,NA,NA,NA,NA,NA,NA,NA,0.017709916254413094,0.032719238441807685,0.032719238441807685,NA,NA,NA,NA,NA,NA,NA,0.08603298221952416,0.15647347014019286,0.15647347014019286,NA,NA,NA,NA,NA,NA,NA,0.17406106328379867,0.3221949454273254,0.3221949454273254,NA,NA,NA,NA,NA,NA,NA,0.09543033726807437,0.46079077421525994,0.46079077421525994,NA,NA,NA,NA,NA,NA,NA,0.0855509193069871,0.3814913623078293,0.3814913623078293,NA,NA,NA,NA,NA,NA,NA,0.03471478932138794,0.1469686853634602,0.1469686853634602,NA,NA,NA,NA,NA,NA,NA
48,48,48,E1,E1.2,2,1,S1,28,TrialList6,war,quiet,apocalypse,Temporal,quiet{-}war9,Medium,apocalypse9,36749,conquer{-}war9,21668,0,conquer,war,1,0,underground,underground9,27512,0,experiment{-}war9,9031,silence,silencer9,17365,1,quiet{-}war9,32417.0,3,3.95,3.63,5,3.7769999999999997,2.76,4.0,3.8635,3.195,10.0,2.104,2.21,3,11.0,2.788,4.07,0.21879318524664315,-0.010471662184520225,-0.010471662184520225,0.17227801655511488,0.1510213950818874,0.2520269067042562,0.5418069061889338,0.12114712707356412,0.14186013654383334,0.05421723999658279,0.19727856350406103,NA,NA,0.016646109596057168,0.007356117226614889,0.20512230589598912,0.9750863388121566,NA,0.018941674232907935,NA,0.1080394175681132,NA,NA,0.05860995525498469,0.03727782353852449,0.07239609221480947,0.8241023963624177,NA,0.05567823075515155,NA,0.1720066423822637,NA,NA,0.13046416681117667,0.11112942822026461,0.1520296115691009,0.8487175482800304,NA,0.16096999162492853,NA,0.09187364508930729,0.07265371287567302,0.07265371287567302,0.11802972261841482,0.11033221745085486,0.12114792156903087,0.9165386272753452,0.07383212949995743,0.10760421655719166,0.0995411040546067,0.07938151223439172,0.06771596832574389,0.06771596832574389,0.1320556567611897,0.13534072711483258,0.11364904034498946,0.9018714899294168,0.08795111399288846,0.12612641214443765,0.1108051968970728,0.05014546146881438,0.02836054799721921,0.02836054799721921,0.05249097661005664,0.030488659653427286,0.07492608808955492,0.9809231044732001,0.06042859376489029,0.03682546285274091,0.05578894683988023
49,49,49,E1,E1.2,2,1,S1,26,TrialList6,definition,assist,dictionary,Attributive,assist{-}definition9,Hard,dictionary9,20999,assist{-}definition9,23114,1,assist,definition,1,1,na,,0,0,,0,na,,0,0,,0.0,10,2.4730000000000003,3.07,6,2.603,2.52,8.0,2.5380000000000003,2.795,10.0,2.281,4.62,1,,,,0.05124172991962617,-0.01630988733959926,-0.01630988733959926,NA,NA,NA,NA,NA,NA,NA,-0.02469190901235163,0.0015270144196860569,0.0015270144196860569,NA,NA,NA,NA,NA,NA,NA,-0.025401597737491066,-0.026544462032069838,-0.026544462032069838,NA,NA,NA,NA,NA,NA,NA,0.14830916847596853,0.08212063712045625,0.08212063712045625,NA,NA,NA,NA,NA,NA,NA,0.047199135560274774,0.037641438567602936,0.037641438567602936,NA,NA,NA,NA,NA,NA,NA,0.06643254232660933,0.06078325844215715,0.06078325844215715,NA,NA,NA,NA,NA,NA,NA,0.13339191491412317,0.08056328931325296,0.08056328931325296,NA,NA,NA,NA,NA,NA,NA
50,50,50,E1,E1.2,2,1,S1,27,TrialList6,pants,collar,suit,Coordinate,collar{-}pants9,Easy,suit9,9793,collar{-}pants9,14365,1,collar,pants,1,1,na,,0,0,,0,na,,0,0,,0.0,5,3.477,4.86,6,2.73,4.64,5.5,3.1035,4.75,4.0,3.5439999999999996,4.97,1,,,,0.3845448588381085,0.3371681569383631,0.3371681569383631,NA,NA,NA,NA,NA,NA,NA,0.5696484284315101,0.6281946795777615,0.6281946795777615,NA,NA,NA,NA,NA,NA,NA,0.3908877415961758,0.42183272435935226,0.42183272435935226,NA,NA,NA,NA,NA,NA,NA,0.6995894162134746,0.6559086713270003,0.6559086713270003,NA,NA,NA,NA,NA,NA,NA,0.48632231366935774,0.5429637941450863,0.5429637941450863,NA,NA,NA,NA,NA,NA,NA,0.36246640482769243,0.5418792088397826,0.5418792088397826,NA,NA,NA,NA,NA,NA,NA,0.28488930833242154,0.43473725371257466,0.43473725371257466,NA,NA,NA,NA,NA,NA,NA
51,51,51,E1,E1.2,2,1,S1,31,TrialList7,heavy,feather,weight,Hierarchical,feather{-}heavy9,Medium,weight9,5882,float{-}heavy9,32442,0,float,heavy,1,0,light,light9,72933,1,feather{-}heavy9,19629,na,,0,0,,0.0,5,3.383,3.37,7,2.53,4.9,6.0,2.9565,4.135,6.0,3.267,3.94,2,5.0,3.926,4.21,0.07832944140837106,0.17913260635300832,0.17913260635300832,0.4685371559131155,0.1792716273469842,NA,NA,0.32734365027046985,NA,NA,0.3269049465638787,0.0832129517799387,0.0832129517799387,0.7949028182538171,0.39476074038418285,NA,NA,0.16261455377226786,NA,NA,0.07265493666959078,0.13143709792940328,0.13143709792940328,0.15907331271626302,0.1870134033677222,NA,NA,0.08907938907131985,NA,NA,0.10864241725424861,0.12227221241959585,0.12227221241959585,0.16036969729004047,0.14868869506016202,NA,NA,0.10954746938292859,NA,NA,0.09667067394548379,0.08328770343097658,0.08328770343097658,0.17480544983843838,0.17553272792097097,NA,NA,0.1576490539262887,NA,NA,0.11648914035368274,0.12705318089990703,0.12705318089990703,0.19177542240642553,0.18872642770887482,NA,NA,0.18268867548587375,NA,NA,0.11828980999886152,0.08669687388916225,0.08669687388916225,0.2090736771882017,0.4500027060445755,NA,NA,0.11241209545834252,NA,NA
52,52,52,E1,E1.2,2,1,S1,30,TrialList7,flat,alike,uniform,Attributive,alike{-}flat9,Hard,uniform9,62577,alike{-}man9,31590,0,alike,man,0,1,plate,plates9,44317,0,alike{-}service9,25636,monotone,monotone9,10642,0,flat{-}service9,13651.0,4,3.127,4.07,5,2.763,2.38,4.5,2.945,3.225,7.0,3.103,4.67,4,5.0,3.117,4.77,0.1175618208308713,0.1840173997212151,0.1840173997212151,0.2965999470265719,-0.012150125049472882,NA,NA,0.16486177972685112,NA,NA,-0.0032196934085009232,0.22760298631934894,0.22760298631934894,0.06667157828317305,0.0011039907025542917,NA,NA,0.023460109555458852,NA,NA,0.012032673952740769,0.15839752801297047,0.15839752801297047,0.08518809520022519,0.004520819923253261,NA,NA,0.022539652008834676,NA,NA,0.09346354256077682,0.1858725364885112,0.1858725364885112,0.280947316910402,0.004663936468686347,NA,NA,0.08939960530302749,NA,NA,0.10847268425154033,0.2568671020880948,0.2568671020880948,0.31296648894961954,0.026464362610575942,NA,NA,0.10234165890996927,NA,NA,0.0779036904502638,0.19962153307519137,0.19962153307519137,0.3160153186616427,0.018790739133774492,NA,NA,0.10504958770590722,NA,NA,0.037464669737218625,0.24364836458491934,0.24364836458491934,0.2157467565872302,0.008091025834236598,NA,NA,0.043708175918173886,NA,NA
53,53,53,E1,E1.2,2,1,S1,32,TrialList7,perjury,adultery,court,Locative,adultery{-}perjury9,Easy,court9,30947,adultery{-}perjury9,15273,1,adultery,perjury,1,1,na,,0,0,,0,na,,0,0,,0.0,7,2.064,2.22,8,2.0,2.79,7.5,2.032,2.505,5.0,3.7110000000000003,4.31,1,,,,0.44276668923560214,0.21014143879939173,0.21014143879939173,NA,NA,NA,NA,NA,NA,NA,0.6307742399920472,0.0012470462239311253,0.0012470462239311253,NA,NA,NA,NA,NA,NA,NA,0.36502573603081045,0.18044313648787202,0.18044313648787202,NA,NA,NA,NA,NA,NA,NA,-0.009893670623549955,0.16054521372795394,0.16054521372795394,NA,NA,NA,NA,NA,NA,NA,0.4939673646094517,0.1440361658971141,0.1440361658971141,NA,NA,NA,NA,NA,NA,NA,0.4061849976779286,0.11486290665930055,0.11486290665930055,NA,NA,NA,NA,NA,NA,NA,0.2580792151570289,0.05241517122253225,0.05241517122253225,NA,NA,NA,NA,NA,NA,NA
54,54,54,E1,E1.2,2,1,S1,36,TrialList8,communicate,cooking,recipe,Attributive,communicate{-}cooking9,Hard,recipe9,10772,cooking{-}sauce9,15872,0,cooking,sauce,0,1,food network,food{SPACE}network9,23955,0,cooking{-}vegetable9,24288,recipe,reci{LEFTBRACKET}pe9,62474,0,pepper{-}vegetable9,26828.0,11,2.639,3.43,7,3.117,4.19,9.0,2.878,3.81,6.0,2.59,4.43,4,,,,0.08973472060279919,0.5018405357982266,0.5018405357982266,NA,NA,0.06795278338637012,0.5018405357982266,NA,NA,1.0,0.008152736899328827,0.9661719648752954,0.9661719648752954,NA,NA,0.0054912742033951245,0.9661719648752954,NA,NA,1.0,0.027437781500747715,0.5969833773807002,0.5969833773807002,NA,NA,0.031015305187057196,0.5969833773807002,NA,NA,0.9999999999999999,0.06744832351911023,0.5008394249503683,0.5008394249503683,NA,NA,0.04080761745800687,0.5008394249503683,NA,NA,0.9999999999999999,0.017125447299145558,0.8389895130104096,0.8389895130104096,NA,NA,0.044643312419298864,0.8389895130104096,NA,NA,1.0,0.0142825033398013,0.8106045535890495,0.8106045535890495,NA,NA,0.0419051571120006,0.8106045535890495,NA,NA,1.0,0.01211800911468619,0.8784995221466494,0.8784995221466494,NA,NA,0.010399911865459188,0.8784995221466494,NA,NA,1.0
55,55,55,E1,E1.2,2,1,S1,34,TrialList8,bad,actress,boo,Attributive,actress{-}bad9,Medium,booed9,72190,actress{-}vegetable9,18531,0,actress,vegetable,0,1,razzy,razzy9,86067,0,trash{-}vegetable9,16935,rating,rating9,40167,0,bad{-}actress9,18100.0,3,4.444,1.68,7,2.9130000000000003,4.54,5.0,3.6785,3.11,3.0,2.7760000000000002,2.48,4,,,,0.14857147853658803,-0.010729599495404196,-0.010729599495404196,NA,NA,0.2508794483123502,0.12118169652961341,NA,NA,-0.06336009573774293,0.003954859031499058,NA,NA,NA,NA,NA,NA,NA,NA,NA,0.041621766331644716,NA,NA,NA,NA,NA,NA,NA,NA,NA,0.15734131454238187,NA,NA,NA,NA,NA,NA,NA,NA,NA,0.05962909593985943,0.04011561632956051,0.04011561632956051,NA,NA,0.09520712110881757,0.19589597523009594,NA,NA,0.0635861970917786,0.05773366889628806,0.020460305316624017,0.020460305316624017,NA,NA,0.12685625386965416,0.21150438897712653,NA,NA,0.07529326874880848,0.03704300884133249,-0.0030347708001092766,-0.0030347708001092766,NA,NA,0.19156909922982746,0.4815832730026782,NA,NA,0.03483321391831706
56,56,56,E1,E1.2,2,1,S1,35,TrialList8,breeze,bubble,ocean,Locative,breeze{-}bubble9,Easy,ocean9,36487,breeze{-}bubble9,13959,1,breeze,bubble,1,1,na,,0,0,,0,na,,0,0,,0.0,6,2.614,3.62,6,2.612,4.6,6.0,2.613,4.11,5.0,3.1889999999999996,4.86,1,,,,0.12367176955175485,0.10495928346908256,0.10495928346908256,NA,NA,NA,NA,NA,NA,NA,0.06262426802593657,0.06600153785894247,0.06600153785894247,NA,NA,NA,NA,NA,NA,NA,0.1436461853510922,0.06569019288050659,0.06569019288050659,NA,NA,NA,NA,NA,NA,NA,0.34218555665090244,0.29450717887493005,0.29450717887493005,NA,NA,NA,NA,NA,NA,NA,0.23135430462406015,0.2602174344686763,0.2602174344686763,NA,NA,NA,NA,NA,NA,NA,0.16300033287699878,0.19487193436597516,0.19487193436597516,NA,NA,NA,NA,NA,NA,NA,0.14983300027037838,0.2227563708268494,0.2227563708268494,NA,NA,NA,NA,NA,NA,NA
57,57,57,E1,E1.2,2,1,S1,39,TrialList9,lunch,almond,snack,Hierarchical,almond{-}lunch9,Medium,snack9,23796,almond{-}drink9,21967,0,almond,drink,0,1,food,food9,8392,1,almond{-}lunch9,10348,na,,0,0,,0.0,5,3.725,4.31,6,1.756,4.71,5.5,2.7405,4.51,5.0,2.6689999999999996,4.36,2,4.0,3.896,4.8,0.049139239257680045,0.21296858522406925,0.21296858522406925,0.3847720942069326,0.0495146543517937,NA,NA,0.437938142359245,NA,NA,0.01863138217520166,0.10117271003239092,0.10117271003239092,0.9300527869518588,0.04728461418900598,NA,NA,0.9876175158000412,NA,NA,0.009425455775623481,0.2660778228813818,0.2660778228813818,0.7430423997308694,0.12173100405781023,NA,NA,0.5960567371950091,NA,NA,0.1456356207723295,0.5405841298621905,0.5405841298621905,0.8395543255136153,0.23236942869971622,NA,NA,0.8351201193138067,NA,NA,0.21260013224321195,0.6424086509743984,0.6424086509743984,0.7934501443499167,0.36294416198377166,NA,NA,0.7814797617814966,NA,NA,0.06278677511116493,0.45925011871758226,0.45925011871758226,0.7072039167293813,0.1950835834694402,NA,NA,0.6394030151489238,NA,NA,0.12338953628166238,0.37138798728488576,0.37138798728488576,0.8737180686959248,0.24369235608052064,NA,NA,0.9424456622398045,NA,NA
58,58,58,E1,E1.2,2,1,S1,38,TrialList9,bat,bounce,ball,Coordinate,bat{-}bounce9,Easy,ball9,20669,bat{-}bounce9,12950,1,bat,bounce,1,1,na,,0,0,,0,na,,0,0,,0.0,3,3.022,5.0,6,2.702,3.86,4.5,2.862,4.43,4.0,3.7289999999999996,5.0,1,,,,0.3377705815805987,0.5030915057060703,0.5030915057060703,NA,NA,NA,NA,NA,NA,NA,0.8087624476605485,0.9617391692933193,0.9617391692933193,NA,NA,NA,NA,NA,NA,NA,0.22581177199640967,0.5229650030972582,0.5229650030972582,NA,NA,NA,NA,NA,NA,NA,0.39546451316327547,0.7524424510203319,0.7524424510203319,NA,NA,NA,NA,NA,NA,NA,0.42837032730321745,0.6651767199889299,0.6651767199889299,NA,NA,NA,NA,NA,NA,NA,0.42849582255887286,0.6531973782399372,0.6531973782399372,NA,NA,NA,NA,NA,NA,NA,0.6244708447959044,0.844634470010798,0.844634470010798,NA,NA,NA,NA,NA,NA,NA
59,59,59,E1,E1.2,2,1,S1,40,TrialList9,toes,Dracula,ugly,Attributive,Dracula{-}toes9,Hard,ugly9,46792,Dracula{-}toes9,32124,1,Dracula,toes,1,1,na,,0,0,,0,na,,0,0,,0.0,4,2.805,,7,,,5.5,2.805,,4.0,3.333,3.23,1,,,,0.05963638560721618,0.011761819256369654,0.011761819256369654,NA,NA,NA,NA,NA,NA,NA,0.007869726166263247,0.062305446600772973,0.062305446600772973,NA,NA,NA,NA,NA,NA,NA,0.028983044017098725,0.15333142480024442,0.15333142480024442,NA,NA,NA,NA,NA,NA,NA,0.0604587258165179,0.25545112343436216,0.25545112343436216,NA,NA,NA,NA,NA,NA,NA,0.0678890301133146,0.25885230623765965,0.25885230623765965,NA,NA,NA,NA,NA,NA,NA,0.0077884628926254695,0.1872831910443714,0.1872831910443714,NA,NA,NA,NA,NA,NA,NA,0.01470976802727686,0.0344618988370432,0.0344618988370432,NA,NA,NA,NA,NA,NA,NA
60,60,60,E1,E1.3,3,1,S1,7,TrialList1,giggle,abnormal,laugh,Coordinate,abnormal{-}giggle9,Medium,laugh9,31280,giggle{-}rumor9,27368,0,giggle,rumor,1,0,weird,wierd9,11112,1,abnormal{-}giggle9,15983,na,,0,0,,0.0,6,1.944,3.72,8,2.173,2.14,7.0,2.0585,2.93,5.0,3.5060000000000002,4.21,2,5.0,3.712,1.59,0.1110432235928066,0.040836096270142064,0.040836096270142064,0.2159075900366495,0.25561019915459715,NA,NA,0.3645289218566561,NA,NA,-0.011942076206493235,-0.0042023150084251615,-0.0042023150084251615,0.011598954283799201,0.8901255058408148,NA,NA,0.020543572441386604,NA,NA,-0.00654498518437574,-0.011169914938421677,-0.011169914938421677,0.09587460206078491,0.9261134173340559,NA,NA,0.08135651560909785,NA,NA,0.08598495913270976,0.08413659668126883,0.08413659668126883,0.22819493736890095,0.9302593339415967,NA,NA,0.21197764013231757,NA,NA,0.020898145861131034,0.05269046333616878,0.05269046333616878,0.20312261075416993,0.889740896532707,NA,NA,0.23323013926524627,NA,NA,-0.01842087042047913,0.017829098446416114,0.017829098446416114,0.13434312127851034,0.894042988999934,NA,NA,0.17355534933214156,NA,NA,-0.009822552747094093,0.0004041844177610221,0.0004041844177610221,0.04068871532715013,0.963287379726097,NA,NA,0.052115792782888914,NA,NA
61,61,61,E1,E1.3,3,1,S1,6,TrialList1,exam,algebra,math,Hierarchical,algebra{-}exam9,Easy,math9,11869,algebra{-}exam9,19245,1,algebra,exam,1,1,na,,0,0,,0,na,,0,0,,0.0,4,2.8360000000000003,4.48,7,1.959,3.14,5.5,2.3975,3.81,4.0,2.923,3.15,1,,,,0.294723332823305,0.3953460176553689,0.3953460176553689,NA,NA,NA,NA,NA,NA,NA,-0.014297108294813343,0.99665617842181,0.99665617842181,NA,NA,NA,NA,NA,NA,NA,0.29918502428244254,0.8671074913860983,0.8671074913860983,NA,NA,NA,NA,NA,NA,NA,0.3960302023261757,0.9195650037931234,0.9195650037931234,NA,NA,NA,NA,NA,NA,NA,0.2540965051611994,0.9590594575256929,0.9590594575256929,NA,NA,NA,NA,NA,NA,NA,0.2033902588087303,0.9364708672516164,0.9364708672516164,NA,NA,NA,NA,NA,NA,NA,0.1481970968234444,0.9877439806351994,0.9877439806351994,NA,NA,NA,NA,NA,NA,NA
62,62,62,E1,E1.3,3,1,S1,8,TrialList1,void,couch,sit,Attributive,couch{-}void9,Hard,sit9,56567,couch{-}void9,49948,1,couch,void,1,1,na,,0,0,,0,na,,0,0,,0.0,4,2.322,2.62,5,3.0789999999999997,4.71,4.5,2.7005,3.665,3.0,4.2010000000000005,4.8,1,,,,0.06154606635450122,0.4367042630671001,0.4367042630671001,NA,NA,NA,NA,NA,NA,NA,-0.01695988452239927,0.8928550931648284,0.8928550931648284,NA,NA,NA,NA,NA,NA,NA,-0.007320074254923092,0.8319734776999165,0.8319734776999165,NA,NA,NA,NA,NA,NA,NA,0.025040346553151793,0.8410810239593455,0.8410810239593455,NA,NA,NA,NA,NA,NA,NA,0.019018169566455523,0.7795172882304388,0.7795172882304388,NA,NA,NA,NA,NA,NA,NA,0.01178667862088767,0.7861457730108645,0.7861457730108645,NA,NA,NA,NA,NA,NA,NA,0.004049342820268476,0.8845515267809477,0.8845515267809477,NA,NA,NA,NA,NA,NA,NA
63,63,63,E1,E1.3,3,1,S1,42,TrialList10,pendulum,dusk,swing,Attributive,dusk{-}pendulum9,Hard,swing9,51757,bat{-}rhythm9,36283,0,bat,rhythm,0,0,weight,weight9,80316,0,bat{-}nautron9,100515,evening,evening9,10535,1,dusk{-}pendulum9,63724.0,8,1.4469999999999998,4.69,4,1.7919999999999998,4.24,6.0,1.6195,4.465,5.0,3.123,4.54,3,6.0,3.267,3.94,0.1101165376971549,0.11796635102291664,0.11796635102291664,0.11680177430227823,-0.029659649081109185,-0.08230093410427197,0.3726704937904234,0.20218518710590994,0.10083219430421875,0.18244228562684006,0.020707103592874865,-0.0025235240210930154,-0.0025235240210930154,0.005400126029380337,-0.005495006273105618,-0.014875577991643407,0.6939634988670692,0.019458211347591514,0.004051038170930887,0.02144521004386335,-0.003386328682679851,0.014908711831257748,0.014908711831257748,0.058014681415450964,0.000919347514293789,0.0037645556690021342,0.939595498940842,0.051289211868255635,0.00652052452868479,0.014869167767261326,-0.0054514599394916985,-0.008652802347486777,-0.008652802347486777,0.08795672085158923,0.0281725466294539,0.01000738086469044,0.9335551725414507,0.10411092281130618,0.03828946211205386,-0.0011083171401078395,-0.0022916221934277115,0.04523342012890075,0.04523342012890075,0.2689478288651157,0.04507810504699472,0.01613377738199062,0.8350642748408516,0.17604809280627098,0.03180090645609568,0.07550539884841911,0.036024428892065696,0.07979167543602594,0.07979167543602594,0.26309738932802706,0.056833939818332846,0.07062415743087147,0.8393474200791932,0.186010373064615,0.05425024266284151,0.12153225392364209,0.05007930353723866,0.03755913102676267,0.03755913102676267,0.18795536487446396,0.018646141898128632,0.13914979935321903,0.9373483681735724,0.09261747644073992,0.009893313542447935,0.0821182264397442
64,64,64,E1,E1.3,3,1,S1,43,TrialList10,tea,bean,coffee,Coordinate,bean{-}tea9,Easy,coffee9,31699,bean{-}tea9,8579,1,bean,tea,1,1,na,,0,0,,0,na,,0,0,,0.0,3,3.4760000000000004,4.69,4,2.544,5.0,3.5,3.01,4.845,6.0,3.8680000000000003,4.81,1,,,,0.3237202899988505,0.4120559822166723,0.4120559822166723,NA,NA,NA,NA,NA,NA,NA,0.07121897254364551,0.07098759053229098,0.07098759053229098,NA,NA,NA,NA,NA,NA,NA,0.2255829418056523,0.25916133750301495,0.25916133750301495,NA,NA,NA,NA,NA,NA,NA,0.4456816207686016,0.46397207741028723,0.46397207741028723,NA,NA,NA,NA,NA,NA,NA,0.32606791132605994,0.3640014866628202,0.3640014866628202,NA,NA,NA,NA,NA,NA,NA,0.20753849572287286,0.34281676336696165,0.34281676336696165,NA,NA,NA,NA,NA,NA,NA,0.2204120614447529,0.21364929326453852,0.21364929326453852,NA,NA,NA,NA,NA,NA,NA
65,65,65,E1,E1.3,3,1,S1,44,TrialList10,tourist,comedy,laugh,Argument,comedy{-}tourist9,Medium,laugh9,52625,comedy{-}tourist9,36924,1,comedy,tourist,1,1,na,,0,0,,0,na,,0,0,,0.0,7,2.377,4.59,6,2.78,3.1,6.5,2.5785,3.845,5.0,3.5060000000000002,4.21,1,,,,0.07477245966062318,0.38377714742029556,0.38377714742029556,NA,NA,NA,NA,NA,NA,NA,0.15795762466526297,0.9144752106789613,0.9144752106789613,NA,NA,NA,NA,NA,NA,NA,0.08144181105609327,0.8239086565373077,0.8239086565373077,NA,NA,NA,NA,NA,NA,NA,0.17568418692190646,0.7775669611001794,0.7775669611001794,NA,NA,NA,NA,NA,NA,NA,0.044277614695844125,0.8332307040859946,0.8332307040859946,NA,NA,NA,NA,NA,NA,NA,0.043585534599366316,0.874918428125196,0.874918428125196,NA,NA,NA,NA,NA,NA,NA,0.02299368319368067,0.9491930096861225,0.9491930096861225,NA,NA,NA,NA,NA,NA,NA
66,66,66,E1,E1.3,3,1,S1,12,TrialList2,school,stop,children,Locative,school{-}stop9,Medium,children9,26009,bandit{-}school9,66747,0,bandit,school,1,0,pause,pause9,11190,1,school{-}stop9,12713,na,,0,0,,0.0,6,4.23,4.79,4,4.5569999999999995,3.68,5.0,4.3935,4.235,8.0,3.951,4.89,2,5.0,2.441,2.38,0.2040524961806478,0.2981762340751639,0.2981762340751639,-0.032804539362341956,0.32237313255433575,NA,NA,0.050114601327478026,NA,NA,0.005245203754469574,-0.005503377117956898,-0.005503377117956898,0.005952652605506703,0.9764258487208836,NA,NA,-0.010534468875194047,NA,NA,0.02249429955419202,0.02222600768176708,0.02222600768176708,0.004951851535405671,0.7841642392380339,NA,NA,0.01697520146670406,NA,NA,0.16099766073775457,0.07157703766870593,0.07157703766870593,0.12329179878003615,0.8824483810339863,NA,NA,0.0522926797662695,NA,NA,0.13428933996019032,0.10013898545743116,0.10013898545743116,0.12573525449322454,0.7051035687039537,NA,NA,0.07042026009822477,NA,NA,0.14586464575726366,0.12609706887340033,0.12609706887340033,0.15777294810246623,0.6705072229167047,NA,NA,0.10816010588270908,NA,NA,0.03612845499674988,0.03363269443224948,0.03363269443224948,0.05339308405601684,0.885283216740727,NA,NA,0.06860892773788296,NA,NA
67,67,67,E1,E1.3,3,1,S1,10,TrialList2,beginning,brake,stop,Coordinate,beginning{-}brake9,Hard,stop9,47842,brake{-}stop9,34716,0,brake,stop,0,1,start,start9,35942,1,beginning{-}brake9,36931,na,,0,0,,0.0,9,3.508,2.5,5,2.4859999999999998,4.44,7.0,2.997,3.47,4.0,4.5569999999999995,3.68,2,5.0,4.239,2.71,0.04710721895062209,0.2233514860308652,0.2233514860308652,0.6896224745658203,0.12671824325191428,NA,NA,0.5460899127744716,NA,NA,0.10916630870839883,0.8468402510311643,0.8468402510311643,0.8813334907131765,0.4017485349088681,NA,NA,0.5218022114536326,NA,NA,0.09612179298057477,0.5521265380540585,0.5521265380540585,0.764505747343291,0.33190594606274715,NA,NA,0.7485058880820606,NA,NA,0.11601867687603173,0.5062262442212131,0.5062262442212131,0.6573106494558536,0.4142024033227839,NA,NA,0.859845184455452,NA,NA,0.11965929460068203,0.5951432834421678,0.5951432834421678,0.8917374337306896,0.23436116410296148,NA,NA,0.34236033059473847,NA,NA,0.10444240443630548,0.5641615791830851,0.5641615791830851,0.9052400215254391,0.19361728153702762,NA,NA,0.2898392919199513,NA,NA,0.08194186374098023,0.7878888732769929,0.7878888732769929,0.9555147396421935,0.08696759910910146,NA,NA,0.11567006428765092,NA,NA
68,68,68,E1,E1.3,3,1,S1,11,TrialList2,birds,aircraft,fly,Attributive,aircraft{-}birds9,Easy,fly9,14423,aircraft{-}birds9,10410,1,aircraft,birds,1,1,na,,0,0,,0,na,,0,0,,0.0,5,3.1210000000000004,,8,2.6839999999999997,4.4,6.5,2.9025,4.4,3.0,3.637,4.64,1,,,,0.24283443351233158,0.48735597189530244,0.48735597189530244,NA,NA,NA,NA,NA,NA,NA,0.544180951939714,0.6570926693662666,0.6570926693662666,NA,NA,NA,NA,NA,NA,NA,0.06828938527906625,0.6420283322111356,0.6420283322111356,NA,NA,NA,NA,NA,NA,NA,0.12355777933393064,0.5771188710349817,0.5771188710349817,NA,NA,NA,NA,NA,NA,NA,0.3324465196358649,0.7005747812569145,0.7005747812569145,NA,NA,NA,NA,NA,NA,NA,0.2647665220475719,0.6960898484980865,0.6960898484980865,NA,NA,NA,NA,NA,NA,NA,0.44920937688962104,0.7482314065680119,0.7482314065680119,NA,NA,NA,NA,NA,NA,NA
69,69,69,E1,E1.3,3,1,S1,14,TrialList3,circle,dance,move,Attributive,circle{-}dance9,Easy,movement9,64933,aid{-}dance9,33764,0,aid,dance,0,1,geometry,geometry9,12765,1,circle{-}dance9,13194,na,,0,0,,0.0,6,3.0410000000000004,4.44,5,3.878,4.32,5.5,3.4595,4.38,4.0,4.329,3.25,2,8.0,1.978,3,0.25112143733364056,0.18012580511045495,0.18012580511045495,0.2277426822595462,0.03975949451734517,NA,NA,-0.007352326635056361,NA,NA,0.03250755520566895,0.1321088483044367,0.1321088483044367,0.2574889494045768,-0.0012113728610441132,NA,NA,0.005332111736621181,NA,NA,0.09524927718600407,0.2056211648523183,0.2056211648523183,0.6728745307226869,0.034049561531867556,NA,NA,-0.0018771785781501737,NA,NA,0.18878186089693094,0.2532182562469738,0.2532182562469738,0.7573841767097739,0.08940190021397232,NA,NA,0.043708005720287435,NA,NA,0.24137399218571443,0.3437259470767404,0.3437259470767404,0.7356883504777401,0.06350775467295122,NA,NA,0.05438165149808283,NA,NA,0.23484988405725837,0.39909595663450814,0.39909595663450814,0.6313087872702087,0.03418927881080003,NA,NA,0.02949780924716927,NA,NA,0.06389749936520706,0.3337417706507383,0.3337417706507383,0.5279090356060528,0.011912577206157016,NA,NA,0.01019681508127257,NA,NA
70,70,70,E1,E1.3,3,1,S1,16,TrialList3,hundred,economy,money,Hierarchical,economy{-}hundred9,Hard,money9,41786,economy{-}lawyer9,19047,0,economy,lawyer,0,1,number,number9,14868,1,economy{-}hundred9,17797,na,,0,0,,0.0,7,3.6039999999999996,3.2,7,2.4730000000000003,2.57,7.0,3.0385,2.885,5.0,4.513999999999999,4.54,2,6.0,4.09,3.3,0.07293522181313483,0.3367531109640425,0.3367531109640425,0.4827879846891676,0.23166674605685378,NA,NA,0.3127956528969982,NA,NA,0.7661413778949194,0.9970436241541036,0.9970436241541036,0.6105047237883698,0.06495910849223263,NA,NA,0.07118641400412606,NA,NA,0.14300501538634958,0.5412440277318825,0.5412440277318825,0.7343916986873701,0.06002014906974429,NA,NA,0.13074078291501567,NA,NA,0.1045959380963688,0.5151879035708551,0.5151879035708551,0.7972795940002396,0.1331165484030702,NA,NA,0.3000944012412283,NA,NA,0.16097611139001233,0.794766973316496,0.794766973316496,0.6815498800501129,0.12005280978594979,NA,NA,0.19960723522964652,NA,NA,0.10103429317547097,0.6994815491383563,0.6994815491383563,0.52401247934285,0.12469356396828568,NA,NA,0.16752753023381062,NA,NA,0.4538111147338464,0.9713556733567561,0.9713556733567561,0.6850160607251519,0.07617808344362309,NA,NA,0.08708313240668031,NA,NA
71,71,71,E1,E1.3,3,1,S1,15,TrialList3,famine,calorie,food,Hierarchical,calorie{-}famine9,Medium,food9,7440,calorie{-}famine9,23833,1,calorie,famine,1,1,na,,0,0,,0,na,,0,0,,0.0,6,1.9140000000000001,3.55,7,1.114,3.44,6.5,1.514,3.495,4.0,3.8960000000000004,4.8,1,,,,0.04115799046969559,0.3029011662351544,0.3029011662351544,NA,NA,NA,NA,NA,NA,NA,0.39690568333035214,0.5323205813079563,0.5323205813079563,NA,NA,NA,NA,NA,NA,NA,0.14703531854175256,0.313874486779006,0.313874486779006,NA,NA,NA,NA,NA,NA,NA,0.02614790138716605,0.12105088305975531,0.12105088305975531,NA,NA,NA,NA,NA,NA,NA,0.3891061552649048,0.5979938958119623,0.5979938958119623,NA,NA,NA,NA,NA,NA,NA,0.19778901573013918,0.4685318371286764,0.4685318371286764,NA,NA,NA,NA,NA,NA,NA,0.692817029104818,0.900765342718155,0.900765342718155,NA,NA,NA,NA,NA,NA,NA
72,72,72,E1,E1.3,3,1,S1,19,TrialList4,graph,copy,number,Attributive,copy{-}graph9,Medium,numbers9,66626,clock{-}graph9,28037,0,clock,graph,1,0,replicate,replicate9,24459,1,copy{-}graph9,15196,na,,0,0,,0.0,5,1.591,4.66,4,3.426,3.9,4.5,2.5085,4.28,6.0,4.09,3.3,2,9.0,1.58,3.33,0.09015091617847037,0.184141764885008,0.184141764885008,0.10114248808644688,0.23172706258945852,NA,NA,0.0465461373431304,NA,NA,0.08646645328756741,0.0023757851398497065,0.0023757851398497065,NA,NA,NA,NA,NA,NA,NA,0.02117011564566318,0.0246243301706639,0.0246243301706639,NA,NA,NA,NA,NA,NA,NA,0.06267822705621051,0.16154457442676917,0.16154457442676917,NA,NA,NA,NA,NA,NA,NA,0.13552450958647766,0.12845174176459473,0.12845174176459473,0.08044412612225182,0.9119766703868496,NA,NA,0.10284165753731256,NA,NA,0.0896045667060783,0.08373686054813234,0.08373686054813234,0.03273893603352562,0.9315192577527369,NA,NA,0.06731430275660821,NA,NA,0.09365716248784373,0.004621163958821062,0.004621163958821062,0.03599538802680868,0.9738841829412923,NA,NA,0.009042062063159828,NA,NA
73,73,73,E1,E1.3,3,1,S1,20,TrialList4,kitchen,egg,cook,Argument,egg{-}kitchen9,Easy,cook9,13205,egg{-}kitchen9,17943,1,egg,kitchen,1,1,na,,0,0,,0,na,,0,0,,0.0,7,3.4739999999999998,4.97,3,3.123,4.97,5.0,3.2985,4.97,4.0,3.366,4.32,1,,,,0.22159717286980696,0.30867429222881404,0.30867429222881404,NA,NA,NA,NA,NA,NA,NA,0.014548312400183283,0.04056058213096814,0.04056058213096814,NA,NA,NA,NA,NA,NA,NA,0.0648936691848857,0.197398081439906,0.197398081439906,NA,NA,NA,NA,NA,NA,NA,0.24645053267682482,0.4672383382081702,0.4672383382081702,NA,NA,NA,NA,NA,NA,NA,0.443001346240698,0.6274360027448017,0.6274360027448017,NA,NA,NA,NA,NA,NA,NA,0.3019565917990614,0.5324100668264063,0.5324100668264063,NA,NA,NA,NA,NA,NA,NA,0.1609274212130123,0.2558484536475555,0.2558484536475555,NA,NA,NA,NA,NA,NA,NA
74,74,74,E1,E1.3,3,1,S1,18,TrialList4,corpse,fight,kill,Coordinate,corpse{-}fight9,Hard,killing9,24131,corpse{-}fight9,35345,1,corpse,fight,1,1,na,,0,0,,0,na,,0,0,,0.0,6,2.713,4.89,5,4.011,4.2,5.5,3.362,4.545,4.0,4.363,3.9,1,,,,0.019716625909948826,0.3985483955030057,0.3985483955030057,NA,NA,NA,NA,NA,NA,NA,-0.0021564468163808304,0.10808130320955578,0.10808130320955578,NA,NA,NA,NA,NA,NA,NA,0.010450123104046805,0.28814090981403373,0.28814090981403373,NA,NA,NA,NA,NA,NA,NA,0.04236206000665965,0.45589590896354515,0.45589590896354515,NA,NA,NA,NA,NA,NA,NA,0.06299388723568344,0.4021911437374448,0.4021911437374448,NA,NA,NA,NA,NA,NA,NA,0.05718467120886639,0.33238000436029247,0.33238000436029247,NA,NA,NA,NA,NA,NA,NA,0.00781793939648534,0.08537030468175477,0.08537030468175477,NA,NA,NA,NA,NA,NA,NA
75,75,75,E1,E1.3,3,1,S1,23,TrialList5,near,astronaut,rocket,Locative,astronaut{-}near9,Hard,rocket9,73267,astronaut{-}sky9,18078,0,astronaut,sky,0,1,close,close9,10850,1,astronaut{-}near9,18331,na,,0,0,,0.0,4,3.627,2.79,9,2.3080000000000003,4.75,6.5,2.9675,3.77,6.0,2.782,4.73,2,5.0,4.049,3.2,0.04077691128564498,0.25983611309416654,0.25983611309416654,0.4932604786015622,-0.00652318818134745,NA,NA,0.14597408650685595,NA,NA,0.02287001769118413,0.8332582503668262,0.8332582503668262,0.9177474585583165,0.0494093390549214,NA,NA,0.026909829786274875,NA,NA,0.022309509779045555,0.8613671898266,0.8613671898266,0.8140791164396136,0.045791020810788785,NA,NA,0.04213084150931534,NA,NA,0.183688026311273,0.7598808114220981,0.7598808114220981,0.8044288567120071,0.1453370305048054,NA,NA,0.19906123496282024,NA,NA,0.06960426627385607,0.7659914680303471,0.7659914680303471,0.8039645077113264,0.053343476191857864,NA,NA,0.07532758112837712,NA,NA,0.06563731635336634,0.8025961844665366,0.8025961844665366,0.8549398847798013,0.06713769981617512,NA,NA,0.08856142642690379,NA,NA,0.027439277398388917,0.9098910994001419,0.9098910994001419,0.9207821271456436,0.029277092995897425,NA,NA,0.02593523818442456,NA,NA
76,76,76,E1,E1.3,3,1,S1,22,TrialList5,homeless,apartment,home,Coordinate,apartment{-}homeless9,Easy,house9,15312,apartment{-}homeless9,17271,1,apartment,homeless,1,1,na,,0,0,,0,na,,0,0,,0.0,8,2.736,3.04,9,3.627,4.9,8.5,3.1815,3.97,4.0,4.596,4.11,1,,,,0.2945124973252742,0.4741662435650156,0.4741662435650156,NA,NA,NA,NA,NA,NA,NA,0.09152594217426924,0.9338959636075657,0.9338959636075657,NA,NA,NA,NA,NA,NA,NA,0.09741276839258817,0.5328155851714222,0.5328155851714222,NA,NA,NA,NA,NA,NA,NA,0.1864745730432268,0.6380629795924936,0.6380629795924936,NA,NA,NA,NA,NA,NA,NA,0.21921931351665425,0.7324895498023266,0.7324895498023266,NA,NA,NA,NA,NA,NA,NA,0.17761672866725386,0.7252861425847764,0.7252861425847764,NA,NA,NA,NA,NA,NA,NA,0.11309147371523276,0.9175531173764938,0.9175531173764938,NA,NA,NA,NA,NA,NA,NA
77,77,77,E1,E1.3,3,1,S1,24,TrialList5,onion,cigarette,smell,Attributive,cigarette{-}onion9,Medium,smelly9,48253,cigarette{-}onion9,29326,1,cigarette,onion,1,1,na,,0,0,,0,na,,0,0,,0.0,5,2.3369999999999997,4.86,9,3.133,4.88,7.0,2.735,4.87,5.0,3.627,3.7,1,,,,0.08666523588386443,0.2145686655282104,0.2145686655282104,NA,NA,NA,NA,NA,NA,NA,0.017709916254413094,0.032719238441807685,0.032719238441807685,NA,NA,NA,NA,NA,NA,NA,0.08603298221952416,0.15647347014019286,0.15647347014019286,NA,NA,NA,NA,NA,NA,NA,0.17406106328379867,0.3221949454273254,0.3221949454273254,NA,NA,NA,NA,NA,NA,NA,0.09543033726807437,0.46079077421525994,0.46079077421525994,NA,NA,NA,NA,NA,NA,NA,0.0855509193069871,0.3814913623078293,0.3814913623078293,NA,NA,NA,NA,NA,NA,NA,0.03471478932138794,0.1469686853634602,0.1469686853634602,NA,NA,NA,NA,NA,NA,NA
78,78,78,E1,E1.3,3,1,S1,28,TrialList6,war,quiet,ceasefire,Temporal,quiet{-}war9,Medium,ceasefire9,32820,conquer{-}war9,38710,0,conquer,war,1,0,silence,silence9,11282,1,quiet{-}war9,9226,na,,0,0,,0.0,3,3.95,3.63,5,3.7769999999999997,2.76,4.0,3.8635,3.195,,,,2,7.0,3.112,3.33,0.21879318524664315,NA,NA,0.2520269067042562,0.5418069061889338,NA,NA,NA,NA,NA,0.19727856350406103,NA,NA,0.20512230589598912,0.9750863388121566,NA,NA,NA,NA,NA,0.1080394175681132,NA,NA,0.07239609221480947,0.8241023963624177,NA,NA,NA,NA,NA,0.1720066423822637,NA,NA,0.1520296115691009,0.8487175482800304,NA,NA,NA,NA,NA,0.09187364508930729,NA,NA,0.12114792156903087,0.9165386272753452,NA,NA,NA,NA,NA,0.07938151223439172,NA,NA,0.11364904034498946,0.9018714899294168,NA,NA,NA,NA,NA,0.05014546146881438,NA,NA,0.07492608808955492,0.9809231044732001,NA,NA,NA,NA,NA
79,79,79,E1,E1.3,3,1,S1,26,TrialList6,definition,assist,teach,Coordinate,assist{-}definition9,Hard,teach9,47414,assist{-}definition9,18195,1,assist,definition,1,1,na,,0,0,,0,na,,0,0,,0.0,10,2.4730000000000003,3.07,6,2.603,2.52,8.0,2.5380000000000003,2.795,5.0,3.57,3.15,1,,,,0.05124172991962617,0.29597298207357947,0.29597298207357947,NA,NA,NA,NA,NA,NA,NA,-0.02469190901235163,0.044096279952893225,0.044096279952893225,NA,NA,NA,NA,NA,NA,NA,-0.025401597737491066,0.28956740669653325,0.28956740669653325,NA,NA,NA,NA,NA,NA,NA,0.14830916847596853,0.40255135173748147,0.40255135173748147,NA,NA,NA,NA,NA,NA,NA,0.047199135560274774,0.3367819970331576,0.3367819970331576,NA,NA,NA,NA,NA,NA,NA,0.06643254232660933,0.35968386015097686,0.35968386015097686,NA,NA,NA,NA,NA,NA,NA,0.13339191491412317,0.230106270622491,0.230106270622491,NA,NA,NA,NA,NA,NA,NA
80,80,80,E1,E1.3,3,1,S1,27,TrialList6,pants,collar,clothes,Hierarchical,collar{-}pants9,Easy,clothing9,15470,collar{-}pants9,13655,1,collar,pants,1,1,na,,0,0,,0,na,,0,0,,0.0,5,3.477,4.86,6,2.73,4.64,5.5,3.1035,4.75,7.0,3.713,4.76,1,,,,0.3845448588381085,0.21626911276376537,0.21626911276376537,NA,NA,NA,NA,NA,NA,NA,0.5696484284315101,0.14673696912487866,0.14673696912487866,NA,NA,NA,NA,NA,NA,NA,0.3908877415961758,0.28516167833679873,0.28516167833679873,NA,NA,NA,NA,NA,NA,NA,0.6995894162134746,0.5529087593602778,0.5529087593602778,NA,NA,NA,NA,NA,NA,NA,0.48632231366935774,0.5345902755605736,0.5345902755605736,NA,NA,NA,NA,NA,NA,NA,0.36246640482769243,0.4556630718784789,0.4556630718784789,NA,NA,NA,NA,NA,NA,NA,0.28488930833242154,0.35336399874459956,0.35336399874459956,NA,NA,NA,NA,NA,NA,NA
81,81,81,E1,E1.3,3,1,S1,30,TrialList7,flat,alike,similar,Coordinate,alike{-}flat9,Hard,similar9,63433,alike{-}beauty9,33932,0,alike,beauty,0,1,smooth,smooth9,15398,1,alike{-}flat9,43361,na,,0,0,,0.0,4,3.127,4.07,5,2.763,2.38,4.5,2.945,3.225,7.0,2.843,2.46,2,6.0,2.97,3.81,0.1175618208308713,0.22266509090718434,0.22266509090718434,0.3445028026507384,0.08790842693628453,NA,NA,0.23410574612786916,NA,NA,-0.0032196934085009232,0.9992737160240104,0.9992737160240104,0.4496415902004718,-0.003265572173344111,NA,NA,-0.003919915288087106,NA,NA,0.012032673952740769,0.9792760572012477,0.9792760572012477,0.448805750680194,0.004233731550209896,NA,NA,0.007701264773728234,NA,NA,0.09346354256077682,0.9724011475592997,0.9724011475592997,0.5539870419709165,0.06504544084191322,NA,NA,0.08555582995338451,NA,NA,0.10847268425154033,0.9666006159723619,0.9666006159723619,0.3710966679104326,0.05430621796984203,NA,NA,0.048942489385639276,NA,NA,0.0779036904502638,0.9779942674749137,0.9779942674749137,0.39963167986251746,0.03919686264982103,NA,NA,0.03252144989560979,NA,NA,0.037464669737218625,0.993804726956332,0.993804726956332,0.3169361001026505,0.01753220364829633,NA,NA,0.01952300090287984,NA,NA
82,82,82,E1,E1.3,3,1,S1,32,TrialList7,perjury,adultery,wrongdoing,Hierarchical,adultery{-}perjury9,Easy,wrongdoing9,50636,adultery{-}perjury9,19806,1,adultery,perjury,1,1,na,,0,0,,0,na,,0,0,,0.0,7,2.064,2.22,8,2.0,2.79,7.5,2.032,2.505,10.0,1.431,2.43,1,,,,0.44276668923560214,0.31905972178614106,0.31905972178614106,NA,NA,NA,NA,NA,NA,NA,0.6307742399920472,NA,NA,NA,NA,NA,NA,NA,NA,NA,0.36502573603081045,NA,NA,NA,NA,NA,NA,NA,NA,NA,-0.009893670623549955,NA,NA,NA,NA,NA,NA,NA,NA,NA,0.4939673646094517,0.360800772001165,0.360800772001165,NA,NA,NA,NA,NA,NA,NA,0.4061849976779286,0.2850782830346359,0.2850782830346359,NA,NA,NA,NA,NA,NA,NA,0.2580792151570289,0.3723747059218724,0.3723747059218724,NA,NA,NA,NA,NA,NA,NA
83,83,83,E1,E1.3,3,1,S1,31,TrialList7,heavy,feather,weight,Hierarchical,feather{-}heavy9,Medium,weight9,38165,feather{-}heavy9,30850,1,feather,heavy,1,1,na,,0,0,,0,na,,0,0,,0.0,5,3.383,3.37,7,2.53,4.9,6.0,2.9565,4.135,6.0,3.267,3.94,1,,,,0.07832944140837106,0.17913260635300832,0.17913260635300832,NA,NA,NA,NA,NA,NA,NA,0.3269049465638787,0.0832129517799387,0.0832129517799387,NA,NA,NA,NA,NA,NA,NA,0.07265493666959078,0.13143709792940328,0.13143709792940328,NA,NA,NA,NA,NA,NA,NA,0.10864241725424861,0.12227221241959585,0.12227221241959585,NA,NA,NA,NA,NA,NA,NA,0.09667067394548379,0.08328770343097658,0.08328770343097658,NA,NA,NA,NA,NA,NA,NA,0.11648914035368274,0.12705318089990703,0.12705318089990703,NA,NA,NA,NA,NA,NA,NA,0.11828980999886152,0.08669687388916225,0.08669687388916225,NA,NA,NA,NA,NA,NA,NA
84,84,84,E1,E1.3,3,1,S1,36,TrialList8,communicate,cooking,tell,Coordinate,communicate{-}cooking9,Hard,tell9,76917,clarify{-}communicate9,22909,0,clarify,communicate,1,0,baking,baking9,10304,1,communicate{-}cooking9,25504,na,,0,0,,0.0,11,2.639,3.43,7,3.117,4.19,9.0,2.878,3.81,4.0,4.944,2.9,2,6.0,2.25,4.1,0.08973472060279919,0.1889868021563602,0.1889868021563602,-0.014196762940919205,0.5540359256436324,NA,NA,0.07189066932700505,NA,NA,0.008152736899328827,0.013745696663612916,0.013745696663612916,NA,NA,NA,NA,NA,NA,NA,0.027437781500747715,0.056454401816754984,0.056454401816754984,NA,NA,NA,NA,NA,NA,NA,0.06744832351911023,0.09067827806753426,0.09067827806753426,NA,NA,NA,NA,NA,NA,NA,0.017125447299145558,0.025343143543749225,0.025343143543749225,0.01483899975504066,0.7830871752952729,NA,NA,0.03098349153531299,NA,NA,0.0142825033398013,0.026701326428164585,0.026701326428164585,0.00977275742752215,0.6598177543459661,NA,NA,0.0279071170548163,NA,NA,0.01211800911468619,0.011071186459372884,0.011071186459372884,0.013845252465326752,0.598453092285982,NA,NA,-0.013991890984645261,NA,NA
85,85,85,E1,E1.3,3,1,S1,34,TrialList8,bad,actress,boo,Attributive,actress{-}bad9,Medium,boo9,49398,bad{-}trash9,44233,0,bad,trash,1,0,theater,theater9,53758,0,actress{-}bow9,21852,television,television9,78950,1,actress{-}bad9,40389.0,3,4.444,1.68,7,2.9130000000000003,4.54,5.0,3.6785,3.11,3.0,2.7760000000000002,2.48,3,7.0,3.089,4.92,0.14857147853658803,-0.010729599495404196,-0.010729599495404196,0.13279408848437502,0.2905378226305484,0.20553615627252397,0.3612503626021022,-0.008791223487043087,0.33102808598812583,-0.02077995614675232,0.003954859031499058,NA,NA,0.011490395312820034,0.715822021141595,0.004929777962267123,0.24365613004998288,NA,0.14526218076935327,NA,0.041621766331644716,NA,NA,0.01925370913891311,0.741505539338096,0.07552585190312366,0.47366905938341874,NA,0.5156388649234772,NA,0.15734131454238187,NA,NA,0.10342820998838897,0.7316424085974734,0.11226298720636774,0.5373123018943161,NA,0.663939864995228,NA,0.05962909593985943,0.04011561632956051,0.04011561632956051,0.059222777589265196,0.7389710382406997,0.12758877623289455,0.5233468290262859,0.12949325284432023,0.5473113116132271,0.06484221959660086,0.05773366889628806,0.020460305316624017,0.020460305316624017,0.07094094864733169,0.6895674353467116,0.1516078279318056,0.4654414142338519,0.14668889589607947,0.5208736523656979,0.07186790334179483,0.03704300884133249,-0.0030347708001092766,-0.0030347708001092766,0.025076627024129272,0.8828531535923331,0.0819089500350797,0.5294149598005478,0.027832874186493606,0.6074057813595667,0.016739550500136202
86,86,86,E1,E1.3,3,1,S1,35,TrialList8,breeze,bubble,blow,Attributive,breeze{-}bubble9,Easy,blow9,31801,breeze{-}bubble9,16958,1,breeze,bubble,1,1,na,,0,0,,0,na,,0,0,,0.0,6,2.614,3.62,6,2.612,4.6,6.0,2.613,4.11,4.0,3.697,3.74,1,,,,0.12367176955175485,0.18902325078498938,0.18902325078498938,NA,NA,NA,NA,NA,NA,NA,0.06262426802593657,0.23534809962018843,0.23534809962018843,NA,NA,NA,NA,NA,NA,NA,0.1436461853510922,0.3858514122293585,0.3858514122293585,NA,NA,NA,NA,NA,NA,NA,0.34218555665090244,0.5561034615483451,0.5561034615483451,NA,NA,NA,NA,NA,NA,NA,0.23135430462406015,0.4293995950805155,0.4293995950805155,NA,NA,NA,NA,NA,NA,NA,0.16300033287699878,0.3194130151962957,0.3194130151962957,NA,NA,NA,NA,NA,NA,NA,0.14983300027037838,0.24202681596872022,0.24202681596872022,NA,NA,NA,NA,NA,NA,NA
87,87,87,E1,E1.3,3,1,S1,40,TrialList9,toes,Dracula,blood,Attributive,Dracula{-}toes9,Hard,blood9,52715,Dracula{-}drink9,38634,0,Dracula,drink,0,1,feet,feet9,6816,1,Dracula{-}toes9,9187,na,,0,0,,0.0,4,2.805,,7,,,5.5,2.805,,5.0,3.977,4.86,2,4.0,3.789,#,0.05963638560721618,0.22621764942093936,0.22621764942093936,0.44610926078357427,-0.020677228320137075,NA,NA,0.23002498919104764,NA,NA,0.007869726166263247,0.9157244733074372,0.9157244733074372,0.9678104097066763,0.0032597305482702232,NA,NA,0.0023240562769830664,NA,NA,0.028983044017098725,0.443678640276181,0.443678640276181,0.8480668065454653,-0.006849833114180637,NA,NA,0.0033292166932302747,NA,NA,0.0604587258165179,0.4492326470568172,0.4492326470568172,0.8929849873910137,0.059689185062755,NA,NA,0.10342722684518901,NA,NA,0.0678890301133146,0.3170071569667493,0.3170071569667493,0.8475316472808786,0.049219449207053345,NA,NA,0.14357433667646924,NA,NA,0.0077884628926254695,0.32432958378846355,0.32432958378846355,0.8166749341941852,-0.002035414393698032,NA,NA,0.09059578609340546,NA,NA,0.01470976802727686,0.8495363795837635,0.8495363795837635,0.9099931739532299,0.011655214340607012,NA,NA,0.018054665430958905,NA,NA
88,88,88,E1,E1.3,3,1,S1,38,TrialList9,bat,bounce,baseball,Coordinate,bat{-}bounce9,Easy,baseball9,58497,bat{-}drink9,39250,0,bat,drink,1,0,hop,hop9,33303,1,bat{-}bounce9,12967,na,,0,0,,0.0,3,3.022,5.0,6,2.702,3.86,4.5,2.862,4.43,8.0,3.11,4.86,2,3.0,2.99,3.8,0.3377705815805987,0.09037457085764888,0.09037457085764888,0.2088061072174806,0.1953126200872346,NA,NA,0.14260042037347465,NA,NA,0.8087624476605485,0.5434804304520787,0.5434804304520787,0.04310618368658614,0.2765813977867386,NA,NA,-0.003940736712370052,NA,NA,0.22581177199640967,0.3107835377723489,0.3107835377723489,0.058851939443611334,0.7173761293596517,NA,NA,0.03550829261081456,NA,NA,0.39546451316327547,0.5206277315441934,0.5206277315441934,0.13230370740860053,0.7116967233608594,NA,NA,0.20970753721542534,NA,NA,0.42837032730321745,0.4871534188642438,0.4871534188642438,0.38026098646015627,0.6724621393929804,NA,NA,0.27709135174053046,NA,NA,0.42849582255887286,0.4719362394915875,0.4719362394915875,0.37509507078371684,0.5930232613102454,NA,NA,0.25427932870645487,NA,NA,0.6244708447959044,0.629295086581767,0.629295086581767,0.1478419681949129,0.6197238083293122,NA,NA,0.08063854292643258,NA,NA
89,89,89,E1,E1.3,3,1,S1,39,TrialList9,lunch,almond,food,Hierarchical,almond{-}lunch9,Medium,food9,14801,almond{-}lunch9,15628,1,almond,lunch,1,1,na,,0,0,,0,na,,0,0,,0.0,5,3.725,4.31,6,1.756,4.71,5.5,2.7405,4.51,4.0,3.8960000000000004,4.8,1,,,,0.049139239257680045,0.0495146543517937,0.0495146543517937,NA,NA,NA,NA,NA,NA,NA,0.01863138217520166,0.04728461418900598,0.04728461418900598,NA,NA,NA,NA,NA,NA,NA,0.009425455775623481,0.12173100405781023,0.12173100405781023,NA,NA,NA,NA,NA,NA,NA,0.1456356207723295,0.23236942869971622,0.23236942869971622,NA,NA,NA,NA,NA,NA,NA,0.21260013224321195,0.36294416198377166,0.36294416198377166,NA,NA,NA,NA,NA,NA,NA,0.06278677511116493,0.1950835834694402,0.1950835834694402,NA,NA,NA,NA,NA,NA,NA,0.12338953628166238,0.24369235608052064,0.24369235608052064,NA,NA,NA,NA,NA,NA,NA
90,90,90,E1,E1.4,4,1,S1,8,TrialList1,void,couch,alone,Attributive,couch{-}void9,Hard,alone9,50195,burglar{-}couch9,30407,0,burglar,couch,0,1,absence,absense9,10918,1,couch{-}void9,16372,na,,0,0,,0.0,4,2.322,2.62,5,3.0789999999999997,4.71,4.5,2.7005,3.665,5.0,4.197,2.86,2,7.0,2.509,2.31,0.06154606635450122,0.19165128054120006,0.19165128054120006,0.3478235147366042,0.027696227427107534,NA,NA,0.2703050837072509,NA,NA,-0.01695988452239927,0.0023676288708815996,0.0023676288708815996,0.17811930450244784,-0.005719465985101424,NA,NA,0.07960915694878579,NA,NA,-0.007320074254923092,0.009671905406964498,0.009671905406964498,0.3087694562374643,-0.013961387346693721,NA,NA,0.10238098776852778,NA,NA,0.025040346553151793,0.046175983288359146,0.046175983288359146,0.44332726010918366,0.003197486516839154,NA,NA,0.24824438010234473,NA,NA,0.019018169566455523,0.07527381931560817,0.07527381931560817,0.803313902418943,0.04115687909451826,NA,NA,0.49866039732834855,NA,NA,0.01178667862088767,0.05568713517112078,0.05568713517112078,0.7775892061880195,0.0405376748821169,NA,NA,0.43545521883471516,NA,NA,0.004049342820268476,0.011286617575941404,0.011286617575941404,0.550244112862625,0.02382411518666061,NA,NA,0.2323685511821867,NA,NA
91,91,91,E1,E1.4,4,1,S1,7,TrialList1,giggle,abnormal,hilarious,Attributive,abnormal{-}giggle9,Medium,hilarious9,29251,adore{-}giggle9,31396,0,adore,giggle,1,0,weird,weird9,9691,1,abnormal{-}giggle9,18731,na,,0,0,,0.0,6,1.944,3.72,8,2.173,2.14,7.0,2.0585,2.93,9.0,2.471,2.39,2,5.0,3.712,1.59,0.1110432235928066,0.10035098412759647,0.10035098412759647,0.2159075900366495,0.25561019915459715,NA,NA,0.4891006521076573,NA,NA,-0.011942076206493235,0.014583643231501853,0.014583643231501853,0.011598954283799201,0.8901255058408148,NA,NA,0.06301602222409375,NA,NA,-0.00654498518437574,0.020851058824716828,0.020851058824716828,0.09587460206078491,0.9261134173340559,NA,NA,0.11485468086507677,NA,NA,0.08598495913270976,0.14333754550414246,0.14333754550414246,0.22819493736890095,0.9302593339415967,NA,NA,0.26946139608762487,NA,NA,0.020898145861131034,0.15149739234823445,0.15149739234823445,0.20312261075416993,0.889740896532707,NA,NA,0.3499303595237122,NA,NA,-0.01842087042047913,0.07368540034783777,0.07368540034783777,0.13434312127851034,0.894042988999934,NA,NA,0.23210375977028208,NA,NA,-0.009822552747094093,0.04754858122972028,0.04754858122972028,0.04068871532715013,0.963287379726097,NA,NA,0.107312963556213,NA,NA
92,92,92,E1,E1.4,4,1,S1,6,TrialList1,exam,algebra,math,Hierarchical,algebra{-}exam9,Easy,math9,15070,algebra{-}exam9,15238,1,algebra,exam,1,1,na,,0,0,,0,na,,0,0,,0.0,4,2.8360000000000003,4.48,7,1.959,3.14,5.5,2.3975,3.81,4.0,2.923,3.15,1,,,,0.294723332823305,0.3953460176553689,0.3953460176553689,NA,NA,NA,NA,NA,NA,NA,-0.014297108294813343,0.99665617842181,0.99665617842181,NA,NA,NA,NA,NA,NA,NA,0.29918502428244254,0.8671074913860983,0.8671074913860983,NA,NA,NA,NA,NA,NA,NA,0.3960302023261757,0.9195650037931234,0.9195650037931234,NA,NA,NA,NA,NA,NA,NA,0.2540965051611994,0.9590594575256929,0.9590594575256929,NA,NA,NA,NA,NA,NA,NA,0.2033902588087303,0.9364708672516164,0.9364708672516164,NA,NA,NA,NA,NA,NA,NA,0.1481970968234444,0.9877439806351994,0.9877439806351994,NA,NA,NA,NA,NA,NA,NA
93,93,93,E1,E1.4,4,1,S1,42,TrialList10,pendulum,dusk,hypnotize,Argument,dusk{-}pendulum9,Hard,hypnotize9,18366,pendulum{-}tourist9,30722,0,pendulum,tourist,1,0,dawn,dawn9,2924,1,dusk{-}pendulum9,8707,na,,0,0,,0.0,8,1.4469999999999998,4.69,4,1.7919999999999998,4.24,6.0,1.6195,4.465,9.0,1.505,2.48,2,4.0,3.115,4.46,0.1101165376971549,0.029076153003185667,0.029076153003185667,-0.023790633690927487,0.6585880818250652,NA,NA,-0.04807190621134394,NA,NA,0.020707103592874865,-0.004804183213218183,-0.004804183213218183,0.023831395979893033,0.9978850382683373,NA,NA,-0.004471801811144038,NA,NA,-0.003386328682679851,0.004128537582498204,0.004128537582498204,0.02782637091290674,0.9634642922663162,NA,NA,0.016655075830029786,NA,NA,-0.0054514599394916985,0.003918250718035865,0.003918250718035865,-0.0040146682903234865,0.964134092322849,NA,NA,0.008988006266998139,NA,NA,-0.0022916221934277115,0.00856382533760569,0.00856382533760569,-0.03507131867247848,0.8264762881749417,NA,NA,-0.007916449890758015,NA,NA,0.036024428892065696,0.0029435581171963765,0.0029435581171963765,-0.010702486502021546,0.7883422320135367,NA,NA,-0.022179550188988095,NA,NA,0.05007930353723866,0.09813658702147254,0.09813658702147254,0.08755221550100367,0.8781561237435448,NA,NA,0.09009663940337598,NA,NA
94,94,94,E1,E1.4,4,1,S1,44,TrialList10,tourist,comedy,Hawaii,Locative,comedy{-}tourist9,Medium,hawaii9,48607,tourist{-}valley9,25332,0,tourist,valley,1,0,funny,funny9,3382,1,comedy{-}tourist9,5347,na,,0,0,,0.0,7,2.377,4.59,6,2.78,3.1,6.5,2.5785,3.845,6.0,2.786,,2,5.0,4.046,2.5,0.07477245966062318,0.02587022629587743,0.02587022629587743,-0.017565096603584962,0.5564353237557471,NA,NA,-0.04148160687056701,NA,NA,0.15795762466526297,0.011393728307789952,0.011393728307789952,0.16433940710831985,0.9910744629287297,NA,NA,0.009421935566905626,NA,NA,0.08144181105609327,-0.00037834289201543747,-0.00037834289201543747,0.1100377807116083,0.9151899446554429,NA,NA,0.00926419422620195,NA,NA,0.17568418692190646,0.028562327875402582,0.028562327875402582,0.20769966119533456,0.8707250409264552,NA,NA,0.029821074474962628,NA,NA,0.044277614695844125,0.02564242554924645,0.02564242554924645,0.056156804931152604,0.8561900758509137,NA,NA,0.04073495996019927,NA,NA,0.043585534599366316,0.013742156240526326,0.013742156240526326,0.05664046206621565,0.8710787308490814,NA,NA,0.029743825648585354,NA,NA,0.02299368319368067,0.01880289393362411,0.01880289393362411,0.030799780740193183,0.9654746830816636,NA,NA,0.00954496492314405,NA,NA
95,95,95,E1,E1.4,4,1,S1,43,TrialList10,tea,bean,coffee,Coordinate,bean{-}tea9,Easy,coffee9,3379,bean{-}tea9,13215,1,bean,tea,1,1,na,,0,0,,0,na,,0,0,,0.0,3,3.4760000000000004,4.69,4,2.544,5.0,3.5,3.01,4.845,6.0,3.8680000000000003,4.81,1,,,,0.3237202899988505,0.4120559822166723,0.4120559822166723,NA,NA,NA,NA,NA,NA,NA,0.07121897254364551,0.07098759053229098,0.07098759053229098,NA,NA,NA,NA,NA,NA,NA,0.2255829418056523,0.25916133750301495,0.25916133750301495,NA,NA,NA,NA,NA,NA,NA,0.4456816207686016,0.46397207741028723,0.46397207741028723,NA,NA,NA,NA,NA,NA,NA,0.32606791132605994,0.3640014866628202,0.3640014866628202,NA,NA,NA,NA,NA,NA,NA,0.20753849572287286,0.34281676336696165,0.34281676336696165,NA,NA,NA,NA,NA,NA,NA,0.2204120614447529,0.21364929326453852,0.21364929326453852,NA,NA,NA,NA,NA,NA,NA
96,96,96,E1,E1.4,4,1,S1,11,TrialList2,birds,aircraft,fly,Attributive,aircraft{-}birds9,Easy,fly9,9406,birds{-}sphinx9,23129,0,birds,sphinx,1,0,plane,plane9,6499,1,aircraft{-}birds9,15299,na,,0,0,,0.0,5,3.1210000000000004,,8,2.6839999999999997,4.4,6.5,2.9025,4.4,3.0,3.637,4.64,2,5.0,3.688,4.92,0.24283443351233158,0.48735597189530244,0.48735597189530244,0.20543945874069836,0.691474766905927,NA,NA,0.5285903270240655,NA,NA,0.544180951939714,0.6570926693662666,0.6570926693662666,0.46307170156287825,0.98422214466661,NA,NA,0.5764998978954512,NA,NA,0.06828938527906625,0.6420283322111356,0.6420283322111356,0.05751855957313312,0.932055327806783,NA,NA,0.6273155776428703,NA,NA,0.12355777933393064,0.5771188710349817,0.5771188710349817,0.15107622321428726,0.8741973524377099,NA,NA,0.6014136905529405,NA,NA,0.3324465196358649,0.7005747812569145,0.7005747812569145,0.380695082059227,0.8727516427773299,NA,NA,0.6873505201038058,NA,NA,0.2647665220475719,0.6960898484980865,0.6960898484980865,0.3540078118128088,0.8908132291574461,NA,NA,0.7182504061857826,NA,NA,0.44920937688962104,0.7482314065680119,0.7482314065680119,0.48028003358331284,0.9899600151334818,NA,NA,0.7637822763232363,NA,NA
